File: 20191115/CVTESTKRISTALL4BOX4.DTA
EXPLAIN
TAG	CV
TITLE	LABEL	CV	Test &Identifier
DATE	LABEL	11/15/2019	Date
TIME	LABEL	10:07:09	Time
NOTES	NOTES	1	&Notes...

PSTAT	PSTAT	REF600-16093	Potentiostat
VINIT	POTEN	0.00000E+000	T	Initial &E (V)
VLIMIT1	POTEN	8.00000E-001	F	Scan Limit &1 (V)
VLIMIT2	POTEN	-6.00000E-001	F	Scan Limit &2 (V)
VFINAL	POTEN	0.00000E+000	T	Final &E (V)
SCANRATE	QUANT	4.99999E+001	&Scan Rate (mV/s)
STEPSIZE	QUANT	1.00000E+000	St&ep Size (mV)
CYCLES	IQUANT	5	C&ycles (#)
IMODE	SELECTOR	1	I/E Range &Mode
IRANGE	QUANT	1.00000E+000	&Max Current (mA)
AREA	QUANT	1.00000E+000	Electrode &Area (cm^2)
ELECTRODETYPE	SELECTOR	0	Electrode Type
STRIPPING	TOGGLE	F	Used for Stripping
POLARITY	TOGGLE	F	Signal Polarity
CONDIT	TWOPARAM	F	1.50000E+001	0.00000E+000	Conditionin&g	Time(s)	E(V)
DELAY	TWOPARAM	T	5.00000E+000	0.00000E+000	Init. De&lay	Time(s)	Stab.(mV/s)
EQDELAY	QUANT	3.00000E+000	Equil. &Time (s)
IRCOMP	SELECTOR	0	IRCom&p
PFCOR	QUANT	0.00000E+000	PF Corr. (ohm)
SAMPLINGMODE	SELECTOR	2	Sampling &Mode
OCVCURVE	TABLE	20
	Pt	T	Vf	Vm	Ach	Over
	#	s	V vs. Ref.	V	V	bits
	0	0.25	1.22654E-001	1.22654E-001	1.26433E-004	...........
	1	0.5	1.22660E-001	1.22970E-001	1.28974E-004	...........
	2	0.75	1.22689E-001	1.22825E-001	1.21641E-004	...........
	3	1	1.22744E-001	1.22821E-001	1.19183E-004	...........
	4	1.25	1.22802E-001	1.22939E-001	1.26308E-004	...........
	5	1.5	1.22842E-001	1.22914E-001	1.24933E-004	...........
	6	1.75	1.22869E-001	1.22834E-001	1.18350E-004	...........
	7	2	1.22881E-001	1.22672E-001	1.22433E-004	...........
	8	2.25	1.22869E-001	1.23091E-001	1.27225E-004	...........
	9	2.5	1.22855E-001	1.22843E-001	1.23766E-004	...........
	10	2.75	1.22859E-001	1.22744E-001	1.36183E-004	...........
	11	3	1.22868E-001	1.22926E-001	1.21516E-004	...........
	12	3.25	1.22864E-001	1.22866E-001	1.23391E-004	...........
	13	3.5	1.22861E-001	1.22973E-001	1.27850E-004	...........
	14	3.75	1.22867E-001	1.22607E-001	1.23016E-004	...........
	15	4	1.22867E-001	1.23011E-001	1.22725E-004	...........
	16	4.25	1.22855E-001	1.22858E-001	1.25433E-004	...........
	17	4.5	1.22849E-001	1.22785E-001	1.20891E-004	...........
	18	4.75	1.22851E-001	1.22805E-001	1.20850E-004	...........
	19	5	1.22842E-001	1.22673E-001	1.25766E-004	...........
EOC	QUANT	0.122842	Open Circuit (V)
PSTATMODEL	IQUANT	4	Pstat Model
PSTATSECTION	LABEL	REF600-16093	Pstat Section
PSTATSERIALNO	LABEL	16093	Pstat Serial Number
CTRLMODE	IQUANT	1	Control Mode
IESTAB	IQUANT	2	I/E Stability
CASPEED	IQUANT	2	Control Amp Speed
CONVENTION	IQUANT	1	Current Convention
ICHRANGE	IQUANT	2	Ich Range
ICHRANGEMODE	TOGGLE	F	Ich Auto Range
ICHOFFSETENABLE	TOGGLE	F	Ich Offset Enable
ICHOFFSET	QUANT	0	Ich Offset (V)
ICHFILTER	IQUANT	2	Ich Filter
VCHRANGE	IQUANT	2	Vch Range
VCHRANGEMODE	TOGGLE	F	Vch Auto Range
VCHOFFSETENABLE	TOGGLE	F	Vch Offset Enable
VCHOFFSET	QUANT	0	Vch Offset (V)
VCHFILTER	IQUANT	2	Vch Filter
ACHRANGE	IQUANT	2	Ach Range
ACHOFFSETENABLE	TOGGLE	F	Ach Offset Enable
ACHOFFSET	QUANT	0	Ach Offset (V)
ACHFILTER	IQUANT	1	Ach Filter
IERANGELOWERLIMIT	IQUANT	1	I/E Range Lower Limit
IERANGEMODE	TOGGLE	F	I/E AutoRange
IERANGE	IQUANT	9	I/E Range
POSFEEDENABLE	TOGGLE	F	Positive Feedback IR Comp
POSFEEDRESISTANCE	QUANT	0	Positive Feedback Resistance (ohm)
ACHSELECT	IQUANT	0	Ach Select
CABLEID	IQUANT	14	Cable ID
DCCALDATE	LABEL	11/5/2019	DC Calibration Date
ACCALDATE	LABEL		AC Calibration Date
THERMOSELECT	IQUANT	1	Thermo Select
FRAMEWORKVERSION	QUANT	6.12	Framework Version
INSTRUMENTVERSION	LABEL	3.11	Instrument Version
CURVE1	TABLE
	Pt	T	Vf	Im	Vu	Sig	Ach	IERange	Over
	#	s	V vs. Ref.	A	V	V	V	#	bits
	0	0.02	1.22466E-001	5.98996E-007	0.00000E+000	1.22850E-001	9.55711E-005	9	...........
	4	0.1	1.26511E-001	1.16883E-006	0.00000E+000	1.26850E-001	1.00242E-004	9	...........
	8	0.18	1.30420E-001	1.29060E-006	0.00000E+000	1.30850E-001	1.00825E-004	9	...........
	12	0.26	1.34471E-001	1.51796E-006	0.00000E+000	1.34850E-001	1.01242E-004	9	...........
	16	0.34	1.38418E-001	1.69779E-006	0.00000E+000	1.38850E-001	9.89905E-005	9	...........
	20	0.42	1.42485E-001	1.56000E-006	0.00000E+000	1.42850E-001	1.01576E-004	9	...........
	24	0.5	1.46396E-001	1.56033E-006	0.00000E+000	1.46850E-001	1.00492E-004	9	...........
	28	0.58	1.50491E-001	1.64340E-006	0.00000E+000	1.50850E-001	9.95743E-005	9	...........
	32	0.66	1.54403E-001	1.54399E-006	0.00000E+000	1.54850E-001	9.66553E-005	9	...........
	36	0.74	1.58472E-001	1.61271E-006	0.00000E+000	1.58850E-001	9.38196E-005	9	...........
	40	0.82	1.62402E-001	1.77218E-006	0.00000E+000	1.62850E-001	9.96577E-005	9	...........
	44	0.9	1.66437E-001	1.69945E-006	0.00000E+000	1.66850E-001	1.03494E-004	9	...........
	48	0.98	1.70367E-001	1.67710E-006	0.00000E+000	1.70850E-001	1.01910E-004	9	...........
	52	1.06	1.74489E-001	1.77986E-006	0.00000E+000	1.74850E-001	9.66553E-005	9	...........
	56	1.14	1.78435E-001	1.86410E-006	0.00000E+000	1.78850E-001	9.90739E-005	9	...........
	60	1.22	1.82451E-001	1.86994E-006	0.00000E+000	1.82850E-001	9.65719E-005	9	...........
	64	1.3	1.86396E-001	1.89262E-006	0.00000E+000	1.86850E-001	9.94909E-005	9	...........
	68	1.38	1.90411E-001	1.83857E-006	0.00000E+000	1.90850E-001	9.69055E-005	9	...........
	72	1.46	1.94308E-001	1.77802E-006	0.00000E+000	1.94850E-001	9.14844E-005	9	...........
	76	1.54	1.98456E-001	1.98103E-006	0.00000E+000	1.98850E-001	9.35694E-005	9	...........
	80	1.62	2.02390E-001	2.17887E-006	0.00000E+000	2.02850E-001	1.03661E-004	9	...........
	84	1.7	2.06419E-001	2.17320E-006	0.00000E+000	2.06850E-001	9.17346E-005	9	...........
	88	1.78	2.10332E-001	2.27862E-006	0.00000E+000	2.10850E-001	8.90657E-005	9	...........
	92	1.86	2.14389E-001	2.33501E-006	0.00000E+000	2.14850E-001	9.34026E-005	9	...........
	96	1.94	2.18244E-001	2.52350E-006	0.00000E+000	2.18850E-001	9.29856E-005	9	...........
	100	2.02	2.22430E-001	2.66730E-006	0.00000E+000	2.22850E-001	9.32358E-005	9	...........
	104	2.1	2.26318E-001	2.61875E-006	0.00000E+000	2.26850E-001	8.66471E-005	9	...........
	108	2.18	2.30420E-001	2.67931E-006	0.00000E+000	2.30850E-001	8.94827E-005	9	...........
	112	2.26	2.34305E-001	2.62943E-006	0.00000E+000	2.34850E-001	9.48205E-005	9	...........
	116	2.34	2.38388E-001	2.87331E-006	0.00000E+000	2.38850E-001	9.54043E-005	9	...........
	120	2.42	2.42318E-001	2.89833E-006	0.00000E+000	2.42850E-001	9.30690E-005	9	...........
	124	2.5	2.46397E-001	3.31870E-006	0.00000E+000	2.46850E-001	9.37362E-005	9	...........
	128	2.58	2.50284E-001	3.31436E-006	0.00000E+000	2.50850E-001	9.66553E-005	9	...........
	132	2.66	2.54409E-001	3.46933E-006	0.00000E+000	2.54850E-001	1.06580E-004	9	...........
	136	2.74	2.58303E-001	3.55006E-006	0.00000E+000	2.58850E-001	9.44868E-005	9	...........
	140	2.82	2.62397E-001	3.72221E-006	0.00000E+000	2.62850E-001	9.26520E-005	9	...........
	144	2.9	2.66332E-001	3.89320E-006	0.00000E+000	2.66850E-001	9.61549E-005	9	...........
	148	2.98	2.70400E-001	3.77960E-006	0.00000E+000	2.70850E-001	9.93241E-005	9	...........
	152	3.06	2.74256E-001	4.10938E-006	0.00000E+000	2.74850E-001	9.64885E-005	9	...........
	156	3.14	2.78409E-001	4.21164E-006	0.00000E+000	2.78850E-001	9.20682E-005	9	...........
	160	3.22	2.82261E-001	4.50556E-006	0.00000E+000	2.82850E-001	9.65719E-005	9	...........
	164	3.3	2.86387E-001	4.65252E-006	0.00000E+000	2.86850E-001	1.02410E-004	9	...........
	168	3.38	2.90292E-001	4.98365E-006	0.00000E+000	2.90850E-001	9.85735E-005	9	...........
	172	3.46	2.94369E-001	5.32945E-006	0.00000E+000	2.94850E-001	9.81565E-005	9	...........
	176	3.54	2.98223E-001	5.56298E-006	0.00000E+000	2.98850E-001	9.48205E-005	9	...........
	180	3.62	3.02398E-001	5.64906E-006	0.00000E+000	3.02850E-001	9.53209E-005	9	...........
	184	3.7	3.06270E-001	5.83939E-006	0.00000E+000	3.06850E-001	9.54043E-005	9	...........
	188	3.78	3.10387E-001	6.09545E-006	0.00000E+000	3.10850E-001	9.40698E-005	9	...........
	192	3.86	3.14268E-001	6.06709E-006	0.00000E+000	3.14850E-001	9.64885E-005	9	...........
	196	3.94	3.18333E-001	6.37252E-006	0.00000E+000	3.18850E-001	9.47370E-005	9	...........
	200	4.02	3.22216E-001	6.78605E-006	0.00000E+000	3.22850E-001	9.88237E-005	9	...........
	204	4.1	3.26389E-001	6.86378E-006	0.00000E+000	3.26850E-001	9.63217E-005	9	...........
	208	4.18	3.30256E-001	7.39925E-006	0.00000E+000	3.30850E-001	9.39864E-005	9	...........
	212	4.26	3.34390E-001	7.71636E-006	0.00000E+000	3.34850E-001	9.26520E-005	9	...........
	216	4.34	3.38244E-001	8.06383E-006	0.00000E+000	3.38850E-001	9.91573E-005	9	...........
	220	4.42	3.42340E-001	8.25349E-006	0.00000E+000	3.42850E-001	9.63217E-005	9	...........
	224	4.5	3.46184E-001	8.48720E-006	0.00000E+000	3.46850E-001	9.74893E-005	9	...........
	228	4.58	3.50343E-001	8.91173E-006	0.00000E+000	3.50850E-001	9.76561E-005	9	...........
	232	4.66	3.54221E-001	9.26587E-006	0.00000E+000	3.54850E-001	1.02160E-004	9	...........
	236	4.74	3.58379E-001	9.47205E-006	0.00000E+000	3.58850E-001	9.66553E-005	9	...........
	240	4.82	3.62243E-001	9.73979E-006	0.00000E+000	3.62850E-001	9.73225E-005	9	...........
	244	4.9	3.66350E-001	1.01198E-005	0.00000E+000	3.66850E-001	9.47370E-005	9	...........
	248	4.98	3.70237E-001	1.05458E-005	0.00000E+000	3.70850E-001	9.62383E-005	9	...........
	252	5.06	3.74376E-001	1.09330E-005	0.00000E+000	3.74850E-001	9.70723E-005	9	...........
	256	5.14	3.78209E-001	1.11377E-005	0.00000E+000	3.78850E-001	9.53209E-005	9	...........
	260	5.22	3.82377E-001	1.18158E-005	0.00000E+000	3.82850E-001	8.60633E-005	9	...........
	264	5.3	3.86217E-001	1.21816E-005	0.00000E+000	3.86850E-001	9.19848E-005	9	...........
	268	5.38	3.90354E-001	1.26170E-005	0.00000E+000	3.90850E-001	9.14010E-005	9	...........
	272	5.46	3.94234E-001	1.32437E-005	0.00000E+000	3.94850E-001	9.13176E-005	9	...........
	276	5.54	3.98359E-001	1.39833E-005	0.00000E+000	3.98850E-001	8.46455E-005	9	...........
	280	5.62	4.02206E-001	1.47930E-005	0.00000E+000	4.02850E-001	8.38114E-005	9	...........
	284	5.7	4.06373E-001	1.54054E-005	0.00000E+000	4.06850E-001	9.47370E-005	9	...........
	288	5.78	4.10179E-001	1.63697E-005	0.00000E+000	4.10850E-001	9.77395E-005	9	...........
	292	5.86	4.14334E-001	1.73911E-005	0.00000E+000	4.14850E-001	9.19014E-005	9	...........
	296	5.94	4.18185E-001	1.86032E-005	0.00000E+000	4.18850E-001	8.89823E-005	9	...........
	300	6.02	4.22245E-001	1.98996E-005	0.00000E+000	4.22850E-001	9.32358E-005	9	...........
	304	6.1	4.26199E-001	2.16989E-005	0.00000E+000	4.26850E-001	9.72391E-005	9	...........
	308	6.18	4.30389E-001	2.36853E-005	0.00000E+000	4.30850E-001	9.10674E-005	9	...........
	312	6.26	4.34204E-001	2.51520E-005	0.00000E+000	4.34850E-001	9.28188E-005	9	...........
	316	6.34	4.38354E-001	2.73980E-005	0.00000E+000	4.38850E-001	9.23184E-005	9	...........
	320	6.42	4.42175E-001	3.00763E-005	0.00000E+000	4.42850E-001	9.21516E-005	9	...........
	324	6.5	4.46235E-001	3.25897E-005	0.00000E+000	4.46850E-001	9.59047E-005	9	...........
	328	6.58	4.50181E-001	3.57286E-005	0.00000E+000	4.50850E-001	8.98163E-005	9	...........
	332	6.66	4.54356E-001	3.88685E-005	0.00000E+000	4.54850E-001	8.80649E-005	9	...........
	336	6.74	4.58195E-001	4.17698E-005	0.00000E+000	4.58850E-001	9.10674E-005	9	...........
	340	6.82	4.62366E-001	4.50842E-005	0.00000E+000	4.62850E-001	9.30690E-005	9	...........
	344	6.9	4.66186E-001	4.86563E-005	0.00000E+000	4.66850E-001	9.63217E-005	9	...........
	348	6.98	4.70252E-001	5.24365E-005	0.00000E+000	4.70850E-001	9.22350E-005	9	...........
	352	7.06	4.74115E-001	5.52237E-005	0.00000E+000	4.74850E-001	9.21516E-005	9	...........
	356	7.14	4.78333E-001	5.77251E-005	0.00000E+000	4.78850E-001	9.35694E-005	9	...........
	360	7.22	4.82190E-001	6.09769E-005	0.00000E+000	4.82850E-001	9.51540E-005	9	...........
	364	7.3	4.86357E-001	6.26794E-005	0.00000E+000	4.86850E-001	8.84819E-005	9	...........
	368	7.38	4.90182E-001	6.40798E-005	0.00000E+000	4.90850E-001	8.88989E-005	9	...........
	372	7.46	4.94253E-001	6.57275E-005	0.00000E+000	4.94850E-001	9.36528E-005	9	...........
	376	7.54	4.98136E-001	6.61054E-005	0.00000E+000	4.98850E-001	9.33192E-005	9	...........
	380	7.62	5.02322E-001	6.63024E-005	0.00000E+000	5.02850E-001	8.88155E-005	9	...........
	384	7.7	5.06156E-001	6.64181E-005	0.00000E+000	5.06850E-001	8.93159E-005	9	...........
	388	7.78	5.10305E-001	6.66685E-005	0.00000E+000	5.10850E-001	8.35612E-005	9	...........
	392	7.86	5.14160E-001	6.58923E-005	0.00000E+000	5.14850E-001	9.04836E-005	9	...........
	396	7.94	5.18212E-001	6.43385E-005	0.00000E+000	5.18850E-001	8.99832E-005	9	...........
	400	8.02	5.22134E-001	6.26000E-005	0.00000E+000	5.22850E-001	8.59799E-005	9	...........
	404	8.1	5.26378E-001	6.06680E-005	0.00000E+000	5.26850E-001	9.11508E-005	9	...........
	408	8.18	5.30172E-001	5.99363E-005	0.00000E+000	5.30850E-001	9.54877E-005	9	...........
	412	8.26	5.34309E-001	5.84826E-005	0.00000E+000	5.34850E-001	8.92325E-005	9	...........
	416	8.34	5.38143E-001	5.63812E-005	0.00000E+000	5.38850E-001	8.99832E-005	9	...........
	420	8.42	5.42194E-001	5.49955E-005	0.00000E+000	5.42850E-001	8.66471E-005	9	...........
	424	8.5	5.46119E-001	5.34085E-005	0.00000E+000	5.46850E-001	9.74059E-005	9	...........
	428	8.58	5.50108E-001	5.22685E-005	0.00000E+000	5.50850E-001	9.07338E-005	9	...........
	432	8.66	5.54148E-001	5.09321E-005	0.00000E+000	5.54850E-001	9.02334E-005	9	...........
	436	8.74	5.58312E-001	4.99782E-005	0.00000E+000	5.58850E-001	8.54795E-005	9	...........
	440	8.82	5.62144E-001	4.90835E-005	0.00000E+000	5.62850E-001	8.83985E-005	9	...........
	444	8.9	5.66216E-001	4.70116E-005	0.00000E+000	5.66850E-001	8.88155E-005	9	...........
	448	8.98	5.70099E-001	4.59343E-005	0.00000E+000	5.70850E-001	8.83985E-005	9	...........
	452	9.06	5.74114E-001	4.53118E-005	0.00000E+000	5.74850E-001	9.04836E-005	9	...........
	456	9.14	5.78135E-001	4.44068E-005	0.00000E+000	5.78850E-001	8.88989E-005	9	...........
	460	9.22	5.82266E-001	4.34605E-005	0.00000E+000	5.82850E-001	9.05670E-005	9	...........
	464	9.3	5.86152E-001	4.27605E-005	0.00000E+000	5.86850E-001	9.46536E-005	9	...........
	468	9.38	5.90231E-001	4.20641E-005	0.00000E+000	5.90850E-001	8.50625E-005	9	...........
	472	9.46	5.94101E-001	4.12692E-005	0.00000E+000	5.94850E-001	9.13176E-005	9	...........
	476	9.54	5.98087E-001	4.07074E-005	0.00000E+000	5.98850E-001	9.25686E-005	9	...........
	480	9.62	6.02030E-001	4.02647E-005	0.00000E+000	6.02850E-001	8.87321E-005	9	...........
	484	9.7	6.06119E-001	3.94133E-005	0.00000E+000	6.06850E-001	9.41532E-005	9	...........
	488	9.78	6.10119E-001	3.87370E-005	0.00000E+000	6.10850E-001	9.00666E-005	9	...........
	492	9.86	6.14180E-001	3.87567E-005	0.00000E+000	6.14850E-001	8.99832E-005	9	...........
	496	9.94	6.18067E-001	3.79694E-005	0.00000E+000	6.18850E-001	9.54877E-005	9	...........
	500	10.02	6.22050E-001	3.73687E-005	0.00000E+000	6.22850E-001	9.09006E-005	9	...........
	504	10.1	6.26024E-001	3.67805E-005	0.00000E+000	6.26850E-001	9.28188E-005	9	...........
	508	10.18	6.30197E-001	3.65253E-005	0.00000E+000	6.30850E-001	8.34778E-005	9	...........
	512	10.26	6.34064E-001	3.61765E-005	0.00000E+000	6.34850E-001	9.24018E-005	9	...........
	516	10.34	6.38142E-001	3.57980E-005	0.00000E+000	6.38850E-001	9.07338E-005	9	...........
	520	10.42	6.42043E-001	3.58560E-005	0.00000E+000	6.42850E-001	8.41450E-005	9	...........
	524	10.5	6.46049E-001	3.54877E-005	0.00000E+000	6.46850E-001	8.31442E-005	9	...........
	528	10.58	6.50018E-001	3.48089E-005	0.00000E+000	6.50850E-001	8.17264E-005	9	...........
	532	10.66	6.54198E-001	3.43782E-005	0.00000E+000	6.54850E-001	8.86487E-005	9	...........
	536	10.74	6.58041E-001	3.40683E-005	0.00000E+000	6.58850E-001	9.09006E-005	9	...........
	540	10.82	6.62067E-001	3.36284E-005	0.00000E+000	6.62850E-001	8.50625E-005	9	...........
	544	10.9	6.66018E-001	3.35163E-005	0.00000E+000	6.66850E-001	8.14762E-005	9	...........
	548	10.98	6.69998E-001	3.27688E-005	0.00000E+000	6.70850E-001	8.83985E-005	9	...........
	552	11.06	6.74010E-001	3.30291E-005	0.00000E+000	6.74850E-001	8.69807E-005	9	...........
	556	11.14	6.77979E-001	3.28174E-005	0.00000E+000	6.78850E-001	8.68973E-005	9	...........
	560	11.22	6.82040E-001	3.26452E-005	0.00000E+000	6.82850E-001	8.48957E-005	9	...........
	564	11.3	6.86176E-001	3.25678E-005	0.00000E+000	6.86850E-001	8.73143E-005	9	...........
	568	11.38	6.90037E-001	3.26594E-005	0.00000E+000	6.90850E-001	9.13176E-005	9	...........
	572	11.46	6.93993E-001	3.23516E-005	0.00000E+000	6.94850E-001	8.94827E-005	9	...........
	576	11.54	6.97982E-001	3.19054E-005	0.00000E+000	6.98850E-001	9.23184E-005	9	...........
	580	11.62	7.01951E-001	3.17144E-005	0.00000E+000	7.02850E-001	9.02334E-005	9	...........
	584	11.7	7.05982E-001	3.14869E-005	0.00000E+000	7.06850E-001	9.09840E-005	9	...........
	588	11.78	7.10038E-001	3.11026E-005	0.00000E+000	7.10850E-001	9.52374E-005	9	...........
	592	11.86	7.14016E-001	3.09900E-005	0.00000E+000	7.14850E-001	9.19014E-005	9	...........
	596	11.94	7.17990E-001	3.11371E-005	0.00000E+000	7.18850E-001	8.98163E-005	9	...........
	600	12.02	7.21965E-001	3.10498E-005	0.00000E+000	7.22850E-001	8.92325E-005	9	...........
	604	12.1	7.25933E-001	3.10085E-005	0.00000E+000	7.26850E-001	8.99832E-005	9	...........
	608	12.18	7.29911E-001	3.09955E-005	0.00000E+000	7.30850E-001	9.18180E-005	9	...........
	612	12.26	7.33992E-001	3.10802E-005	0.00000E+000	7.34850E-001	8.50625E-005	9	...........
	616	12.34	7.37997E-001	3.05449E-005	0.00000E+000	7.38850E-001	8.75645E-005	9	...........
	620	12.42	7.41977E-001	3.03547E-005	0.00000E+000	7.42850E-001	8.33110E-005	9	...........
	624	12.5	7.45968E-001	3.03938E-005	0.00000E+000	7.46850E-001	9.04002E-005	9	...........
	628	12.58	7.49934E-001	3.02950E-005	0.00000E+000	7.50850E-001	8.38114E-005	9	...........
	632	12.66	7.53928E-001	3.02730E-005	0.00000E+000	7.54850E-001	8.38948E-005	9	...........
	636	12.74	7.57953E-001	3.04263E-005	0.00000E+000	7.58850E-001	8.96496E-005	9	...........
	640	12.82	7.61948E-001	3.02688E-005	0.00000E+000	7.62850E-001	9.04836E-005	9	...........
	644	12.9	7.65925E-001	3.02797E-005	0.00000E+000	7.66850E-001	8.27272E-005	9	...........
	648	12.98	7.69945E-001	3.02203E-005	0.00000E+000	7.70850E-001	8.29774E-005	9	...........
	652	13.06	7.73904E-001	3.04071E-005	0.00000E+000	7.74850E-001	9.03168E-005	9	...........
	656	13.14	7.77926E-001	3.02650E-005	0.00000E+000	7.78850E-001	9.31524E-005	9	...........
	660	13.22	7.82049E-001	2.99142E-005	0.00000E+000	7.82850E-001	8.66471E-005	9	...........
	664	13.3	7.85968E-001	2.99749E-005	0.00000E+000	7.86850E-001	9.02334E-005	9	...........
	668	13.38	7.89936E-001	2.97874E-005	0.00000E+000	7.90850E-001	8.78147E-005	9	...........
	672	13.46	7.93929E-001	2.98460E-005	0.00000E+000	7.94850E-001	8.12260E-005	9	...........
	676	13.54	7.97888E-001	2.98159E-005	0.00000E+000	7.98850E-001	8.57297E-005	9	...........
	680	13.62	7.95872E-001	2.57035E-005	0.00000E+000	7.96850E-001	8.43953E-005	9	...........
	684	13.7	7.92003E-001	2.31276E-005	0.00000E+000	7.92850E-001	8.66471E-005	9	...........
	688	13.78	7.87880E-001	2.10423E-005	0.00000E+000	7.88850E-001	8.91491E-005	9	...........
	692	13.86	7.84003E-001	1.92309E-005	0.00000E+000	7.84850E-001	8.76479E-005	9	...........
	696	13.94	7.79914E-001	1.76175E-005	0.00000E+000	7.80850E-001	8.83151E-005	9	...........
	700	14.02	7.75984E-001	1.62526E-005	0.00000E+000	7.76850E-001	9.07338E-005	9	...........
	704	14.1	7.71895E-001	1.43403E-005	0.00000E+000	7.72850E-001	9.26520E-005	9	...........
	708	14.18	7.68003E-001	1.36038E-005	0.00000E+000	7.68850E-001	9.07338E-005	9	...........
	712	14.26	7.63888E-001	1.24915E-005	0.00000E+000	7.64850E-001	8.88155E-005	9	...........
	716	14.34	7.59962E-001	1.16111E-005	0.00000E+000	7.60850E-001	9.11508E-005	9	...........
	720	14.42	7.55838E-001	1.09173E-005	0.00000E+000	7.56850E-001	8.59799E-005	9	...........
	724	14.5	7.51977E-001	1.04789E-005	0.00000E+000	7.52850E-001	8.86487E-005	9	...........
	728	14.58	7.47905E-001	9.86039E-006	0.00000E+000	7.48850E-001	8.68139E-005	9	...........
	732	14.66	7.44006E-001	9.15745E-006	0.00000E+000	7.44850E-001	8.89823E-005	9	...........
	736	14.74	7.39918E-001	8.73391E-006	0.00000E+000	7.40850E-001	9.26520E-005	9	...........
	740	14.82	7.36026E-001	8.23665E-006	0.00000E+000	7.36850E-001	9.08172E-005	9	...........
	744	14.9	7.31861E-001	7.56673E-006	0.00000E+000	7.32850E-001	9.30690E-005	9	...........
	748	14.98	7.27972E-001	6.85978E-006	0.00000E+000	7.28850E-001	8.65637E-005	9	...........
	752	15.06	7.23931E-001	6.75419E-006	0.00000E+000	7.24850E-001	9.45702E-005	9	...........
	756	15.14	7.20009E-001	6.56536E-006	0.00000E+000	7.20850E-001	9.30690E-005	9	...........
	760	15.22	7.15953E-001	6.02522E-006	0.00000E+000	7.16850E-001	9.05670E-005	9	...........
	764	15.3	7.12038E-001	5.58734E-006	0.00000E+000	7.12850E-001	9.21516E-005	9	...........
	768	15.38	7.07906E-001	5.28691E-006	0.00000E+000	7.08850E-001	9.14844E-005	9	...........
	772	15.46	7.04008E-001	5.02351E-006	0.00000E+000	7.04850E-001	9.84067E-005	9	...........
	776	15.54	6.99956E-001	4.82000E-006	0.00000E+000	7.00850E-001	9.16512E-005	9	...........
	780	15.62	6.96021E-001	4.66687E-006	0.00000E+000	6.96850E-001	9.65719E-005	9	...........
	784	15.7	6.91915E-001	4.17845E-006	0.00000E+000	6.92850E-001	9.31524E-005	9	...........
	788	15.78	6.88055E-001	4.13991E-006	0.00000E+000	6.88850E-001	9.57379E-005	9	...........
	792	15.86	6.83945E-001	3.77076E-006	0.00000E+000	6.84850E-001	1.03244E-004	9	...........
	796	15.94	6.80045E-001	3.91038E-006	0.00000E+000	6.80850E-001	9.37362E-005	9	...........
	800	16.02	6.75991E-001	3.55223E-006	0.00000E+000	6.76850E-001	9.49039E-005	9	...........
	804	16.1	6.72035E-001	3.51053E-006	0.00000E+000	6.72850E-001	9.28188E-005	9	...........
	808	16.18	6.67983E-001	3.38075E-006	0.00000E+000	6.68850E-001	9.81565E-005	9	...........
	812	16.26	6.64063E-001	2.51783E-006	0.00000E+000	6.64850E-001	9.79063E-005	9	...........
	816	16.34	6.59975E-001	2.61825E-006	0.00000E+000	6.60850E-001	9.65719E-005	9	...........
	820	16.42	6.56056E-001	2.48047E-006	0.00000E+000	6.56850E-001	9.40698E-005	9	...........
	824	16.5	6.51998E-001	2.43593E-006	0.00000E+000	6.52850E-001	9.12342E-005	9	...........
	828	16.58	6.48046E-001	2.31299E-006	0.00000E+000	6.48850E-001	9.33192E-005	9	...........
	832	16.66	6.44003E-001	2.17003E-006	0.00000E+000	6.44850E-001	9.29856E-005	9	...........
	836	16.74	6.40050E-001	1.87644E-006	0.00000E+000	6.40850E-001	9.19848E-005	9	...........
	840	16.82	6.36036E-001	2.10247E-006	0.00000E+000	6.36850E-001	9.42366E-005	9	...........
	844	16.9	6.32092E-001	1.86927E-006	0.00000E+000	6.32850E-001	9.59881E-005	9	...........
	848	16.98	6.27960E-001	1.72181E-006	0.00000E+000	6.28850E-001	9.77395E-005	9	...........
	852	17.06	6.24057E-001	1.55616E-006	0.00000E+000	6.24850E-001	9.69055E-005	9	...........
	856	17.14	6.20020E-001	1.21970E-006	0.00000E+000	6.20850E-001	9.32358E-005	9	...........
	860	17.22	6.16077E-001	1.22404E-006	0.00000E+000	6.16850E-001	9.42366E-005	9	...........
	864	17.3	6.12074E-001	1.15648E-006	0.00000E+000	6.12850E-001	9.96577E-005	9	...........
	868	17.38	6.08127E-001	1.23955E-006	0.00000E+000	6.08850E-001	9.78229E-005	9	...........
	872	17.46	6.04027E-001	9.65815E-007	0.00000E+000	6.04850E-001	9.60715E-005	9	...........
	876	17.54	6.00095E-001	8.04174E-007	0.00000E+000	6.00850E-001	9.89905E-005	9	...........
	880	17.62	5.96086E-001	5.66634E-007	0.00000E+000	5.96850E-001	9.75727E-005	9	...........
	884	17.7	5.92129E-001	7.58468E-007	0.00000E+000	5.92850E-001	1.01493E-004	9	...........
	888	17.78	5.88109E-001	8.27528E-007	0.00000E+000	5.88850E-001	1.02577E-004	9	...........
	892	17.86	5.84161E-001	3.41438E-007	0.00000E+000	5.84850E-001	1.03494E-004	9	...........
	896	17.94	5.80090E-001	2.63704E-007	0.00000E+000	5.80850E-001	9.95743E-005	9	...........
	900	18.02	5.76130E-001	1.10404E-007	0.00000E+000	5.76850E-001	1.00742E-004	9	...........
	904	18.1	5.72093E-001	2.24336E-007	0.00000E+000	5.72850E-001	1.01910E-004	9	...........
	908	18.18	5.68135E-001	3.06741E-007	0.00000E+000	5.68850E-001	8.78981E-005	9	...........
	912	18.26	5.64096E-001	3.77803E-007	0.00000E+000	5.64850E-001	9.82399E-005	9	...........
	916	18.34	5.60151E-001	3.01570E-007	0.00000E+000	5.60850E-001	9.91573E-005	9	...........
	920	18.42	5.56093E-001	-4.62328E-008	0.00000E+000	5.56850E-001	1.03995E-004	9	...........
	924	18.5	5.52131E-001	-3.18870E-008	0.00000E+000	5.52850E-001	9.50707E-005	9	...........
	928	18.58	5.48101E-001	1.05066E-007	0.00000E+000	5.48850E-001	9.99913E-005	9	...........
	932	18.66	5.44149E-001	-1.77079E-008	0.00000E+000	5.44850E-001	9.44034E-005	9	...........
	936	18.74	5.40114E-001	-5.13806E-007	0.00000E+000	5.40850E-001	9.53209E-005	9	...........
	940	18.82	5.36188E-001	-3.26810E-007	0.00000E+000	5.36850E-001	9.15678E-005	9	...........
	944	18.9	5.32151E-001	-9.08817E-007	0.00000E+000	5.32850E-001	9.34860E-005	9	...........
	948	18.98	5.28197E-001	-7.05640E-007	0.00000E+000	5.28850E-001	9.51540E-005	9	...........
	952	19.06	5.24110E-001	-6.67440E-007	0.00000E+000	5.24850E-001	9.57379E-005	9	...........
	956	19.14	5.20156E-001	-5.95378E-007	0.00000E+000	5.20850E-001	9.75727E-005	9	...........
	960	19.22	5.16137E-001	-7.42506E-007	0.00000E+000	5.16850E-001	9.14844E-005	9	...........
	964	19.3	5.12170E-001	-6.61435E-007	0.00000E+000	5.12850E-001	9.06504E-005	9	...........
	968	19.38	5.08152E-001	-8.88299E-007	0.00000E+000	5.08850E-001	9.51540E-005	9	...........
	972	19.46	5.04197E-001	-8.21575E-007	0.00000E+000	5.04850E-001	9.17346E-005	9	...........
	976	19.54	5.00120E-001	-1.09415E-006	0.00000E+000	5.00850E-001	9.54877E-005	9	...........
	980	19.62	4.96190E-001	-1.36772E-006	0.00000E+000	4.96850E-001	9.16512E-005	9	...........
	984	19.7	4.92159E-001	-1.45229E-006	0.00000E+000	4.92850E-001	9.41532E-005	9	...........
	988	19.78	4.88205E-001	-1.47581E-006	0.00000E+000	4.88850E-001	9.84901E-005	9	...........
	992	19.86	4.84200E-001	-1.39874E-006	0.00000E+000	4.84850E-001	9.45702E-005	9	...........
	996	19.94	4.80219E-001	-1.60225E-006	0.00000E+000	4.80850E-001	9.79063E-005	9	...........
	1000	20.02	4.76175E-001	-1.30316E-006	0.00000E+000	4.76850E-001	9.74059E-005	9	...........
	1004	20.1	4.72187E-001	-1.48031E-006	0.00000E+000	4.72850E-001	9.56545E-005	9	...........
	1008	20.18	4.68193E-001	-1.65547E-006	0.00000E+000	4.68850E-001	9.68221E-005	9	...........
	1012	20.26	4.64227E-001	-1.96774E-006	0.00000E+000	4.64850E-001	9.30690E-005	9	...........
	1016	20.34	4.60198E-001	-1.77324E-006	0.00000E+000	4.60850E-001	9.23184E-005	9	...........
	1020	20.42	4.56233E-001	-1.93821E-006	0.00000E+000	4.56850E-001	9.18180E-005	9	...........
	1024	20.5	4.52200E-001	-2.04230E-006	0.00000E+000	4.52850E-001	9.28188E-005	9	...........
	1028	20.58	4.48209E-001	-2.13538E-006	0.00000E+000	4.48850E-001	9.02334E-005	9	...........
	1032	20.66	4.44188E-001	-2.14723E-006	0.00000E+000	4.44850E-001	9.03168E-005	9	...........
	1036	20.74	4.40232E-001	-2.26783E-006	0.00000E+000	4.40850E-001	8.85653E-005	9	...........
	1040	20.82	4.36209E-001	-2.23998E-006	0.00000E+000	4.36850E-001	9.14844E-005	9	...........
	1044	20.9	4.32269E-001	-2.24315E-006	0.00000E+000	4.32850E-001	8.87321E-005	9	...........
	1048	20.98	4.28225E-001	-2.65784E-006	0.00000E+000	4.28850E-001	9.57379E-005	9	...........
	1052	21.06	4.24260E-001	-2.75876E-006	0.00000E+000	4.24850E-001	9.82399E-005	9	...........
	1056	21.14	4.20180E-001	-3.15444E-006	0.00000E+000	4.20850E-001	9.79897E-005	9	...........
	1060	21.22	4.16234E-001	-3.01782E-006	0.00000E+000	4.16850E-001	9.44034E-005	9	...........
	1064	21.3	4.12205E-001	-3.29790E-006	0.00000E+000	4.12850E-001	8.80649E-005	9	...........
	1068	21.38	4.08297E-001	-3.35728E-006	0.00000E+000	4.08850E-001	9.04002E-005	9	...........
	1072	21.46	4.04284E-001	-2.84133E-006	0.00000E+000	4.04850E-001	9.54877E-005	9	...........
	1076	21.54	4.00287E-001	-3.48356E-006	0.00000E+000	4.00850E-001	9.14010E-005	9	...........
	1080	21.62	3.96241E-001	-3.15677E-006	0.00000E+000	3.96850E-001	9.28188E-005	9	...........
	1084	21.7	3.92280E-001	-3.20732E-006	0.00000E+000	3.92850E-001	9.59047E-005	9	...........
	1088	21.78	3.88241E-001	-3.40099E-006	0.00000E+000	3.88850E-001	9.39864E-005	9	...........
	1092	21.86	3.84283E-001	-3.67573E-006	0.00000E+000	3.84850E-001	8.78147E-005	9	...........
	1096	21.94	3.80290E-001	-3.90860E-006	0.00000E+000	3.80850E-001	9.23184E-005	9	...........
	1100	22.02	3.76313E-001	-3.78549E-006	0.00000E+000	3.76850E-001	9.35694E-005	9	...........
	1104	22.1	3.72378E-001	-4.26958E-006	0.00000E+000	3.72850E-001	8.73143E-005	9	...........
	1108	22.18	3.68303E-001	-4.42271E-006	0.00000E+000	3.68850E-001	8.98163E-005	9	...........
	1112	22.26	3.64293E-001	-4.41287E-006	0.00000E+000	3.64850E-001	8.97329E-005	9	...........
	1116	22.34	3.60315E-001	-4.49060E-006	0.00000E+000	3.60850E-001	9.70723E-005	9	...........
	1120	22.42	3.56296E-001	-4.61888E-006	0.00000E+000	3.56850E-001	9.14844E-005	9	...........
	1124	22.5	3.52310E-001	-4.79420E-006	0.00000E+000	3.52850E-001	9.28188E-005	9	...........
	1128	22.58	3.48267E-001	-5.07695E-006	0.00000E+000	3.48850E-001	9.19014E-005	9	...........
	1132	22.66	3.44289E-001	-5.19455E-006	0.00000E+000	3.44850E-001	8.45620E-005	9	...........
	1136	22.74	3.40307E-001	-5.33334E-006	0.00000E+000	3.40850E-001	9.15678E-005	9	...........
	1140	22.82	3.36323E-001	-5.92802E-006	0.00000E+000	3.36850E-001	9.24018E-005	9	...........
	1144	22.9	3.32322E-001	-5.87664E-006	0.00000E+000	3.32850E-001	9.49039E-005	9	...........
	1148	22.98	3.28356E-001	-6.01693E-006	0.00000E+000	3.28850E-001	9.54043E-005	9	...........
	1152	23.06	3.24315E-001	-5.91351E-006	0.00000E+000	3.24850E-001	9.16512E-005	9	...........
	1156	23.14	3.20276E-001	-6.19392E-006	0.00000E+000	3.20850E-001	9.79897E-005	9	...........
	1160	23.22	3.16298E-001	-6.27115E-006	0.00000E+000	3.16850E-001	9.04002E-005	9	...........
	1164	23.3	3.12326E-001	-6.45681E-006	0.00000E+000	3.12850E-001	9.44868E-005	9	...........
	1168	23.38	3.08318E-001	-6.76074E-006	0.00000E+000	3.08850E-001	9.69055E-005	9	...........
	1172	23.46	3.04371E-001	-6.99728E-006	0.00000E+000	3.04850E-001	9.79063E-005	9	...........
	1176	23.54	3.00340E-001	-7.40464E-006	0.00000E+000	3.00850E-001	9.39864E-005	9	...........
	1180	23.62	2.96324E-001	-7.65986E-006	0.00000E+000	2.96850E-001	8.78981E-005	9	...........
	1184	23.7	2.92313E-001	-8.22902E-006	0.00000E+000	2.92850E-001	9.14844E-005	9	...........
	1188	23.78	2.88337E-001	-8.43453E-006	0.00000E+000	2.88850E-001	8.53961E-005	9	...........
	1192	23.86	2.84336E-001	-8.73380E-006	0.00000E+000	2.84850E-001	9.03168E-005	9	...........
	1196	23.94	2.80395E-001	-8.79869E-006	0.00000E+000	2.80850E-001	8.60633E-005	9	...........
	1200	24.02	2.76432E-001	-8.86091E-006	0.00000E+000	2.76850E-001	8.73143E-005	9	...........
	1204	24.1	2.72386E-001	-8.75765E-006	0.00000E+000	2.72850E-001	9.04836E-005	9	...........
	1208	24.18	2.68337E-001	-9.83993E-006	0.00000E+000	2.68850E-001	8.47289E-005	9	...........
	1212	24.26	2.64366E-001	-9.84159E-006	0.00000E+000	2.64850E-001	8.54795E-005	9	...........
	1216	24.34	2.60349E-001	-1.00946E-005	0.00000E+000	2.60850E-001	9.18180E-005	9	...........
	1220	24.42	2.56376E-001	-1.05509E-005	0.00000E+000	2.56850E-001	8.83151E-005	9	...........
	1224	24.5	2.52367E-001	-1.07561E-005	0.00000E+000	2.52850E-001	8.56463E-005	9	...........
	1228	24.58	2.48376E-001	-1.13969E-005	0.00000E+000	2.48850E-001	8.76479E-005	9	...........
	1232	24.66	2.44498E-001	-1.18657E-005	0.00000E+000	2.44850E-001	9.45702E-005	9	...........
	1236	24.74	2.40368E-001	-1.20789E-005	0.00000E+000	2.40850E-001	8.83985E-005	9	...........
	1240	24.82	2.36368E-001	-1.22856E-005	0.00000E+000	2.36850E-001	8.98998E-005	9	...........
	1244	24.9	2.32389E-001	-1.24127E-005	0.00000E+000	2.32850E-001	8.68973E-005	9	...........
	1248	24.98	2.28413E-001	-1.28255E-005	0.00000E+000	2.28850E-001	8.76479E-005	9	...........
	1252	25.06	2.24405E-001	-1.33018E-005	0.00000E+000	2.24850E-001	9.19848E-005	9	...........
	1256	25.14	2.20494E-001	-1.38808E-005	0.00000E+000	2.20850E-001	8.84819E-005	9	...........
	1260	25.22	2.16359E-001	-1.41338E-005	0.00000E+000	2.16850E-001	8.54795E-005	9	...........
	1264	25.3	2.12387E-001	-1.47786E-005	0.00000E+000	2.12850E-001	9.10674E-005	9	...........
	1268	25.38	2.08405E-001	-1.54573E-005	0.00000E+000	2.08850E-001	9.35694E-005	9	...........
	1272	25.46	2.04475E-001	-1.58859E-005	0.00000E+000	2.04850E-001	9.02334E-005	9	...........
	1276	25.54	2.00448E-001	-1.65214E-005	0.00000E+000	2.00850E-001	9.07338E-005	9	...........
	1280	25.62	1.96436E-001	-1.69791E-005	0.00000E+000	1.96850E-001	8.66471E-005	9	...........
	1284	25.7	1.92379E-001	-1.71870E-005	0.00000E+000	1.92850E-001	9.14844E-005	9	...........
	1288	25.78	1.88420E-001	-1.78928E-005	0.00000E+000	1.88850E-001	9.00666E-005	9	...........
	1292	25.86	1.84440E-001	-1.83729E-005	0.00000E+000	1.84850E-001	9.09006E-005	9	...........
	1296	25.94	1.80518E-001	-1.89831E-005	0.00000E+000	1.80850E-001	9.49039E-005	9	...........
	1300	26.02	1.76483E-001	-1.96790E-005	0.00000E+000	1.76850E-001	9.32358E-005	9	...........
	1304	26.1	1.72557E-001	-2.02250E-005	0.00000E+000	1.72850E-001	9.46536E-005	9	...........
	1308	26.18	1.68454E-001	-2.08986E-005	0.00000E+000	1.68850E-001	9.10674E-005	9	...........
	1312	26.26	1.64415E-001	-2.20309E-005	0.00000E+000	1.64850E-001	9.13176E-005	9	...........
	1316	26.34	1.60443E-001	-2.26569E-005	0.00000E+000	1.60850E-001	9.79063E-005	9	...........
	1320	26.42	1.56499E-001	-2.36096E-005	0.00000E+000	1.56850E-001	9.35694E-005	9	...........
	1324	26.5	1.52484E-001	-2.42591E-005	0.00000E+000	1.52850E-001	9.45702E-005	9	...........
	1328	26.58	1.48610E-001	-2.52558E-005	0.00000E+000	1.48850E-001	9.22350E-005	9	...........
	1332	26.66	1.44477E-001	-2.57595E-005	0.00000E+000	1.44850E-001	8.80649E-005	9	...........
	1336	26.74	1.40438E-001	-2.63738E-005	0.00000E+000	1.40850E-001	9.08172E-005	9	...........
	1340	26.82	1.36451E-001	-2.76968E-005	0.00000E+000	1.36850E-001	8.73977E-005	9	...........
	1344	26.9	1.32491E-001	-2.81721E-005	0.00000E+000	1.32850E-001	9.11508E-005	9	...........
	1348	26.98	1.28468E-001	-2.90582E-005	0.00000E+000	1.28850E-001	8.60633E-005	9	...........
	1352	27.06	1.24588E-001	-2.98959E-005	0.00000E+000	1.24850E-001	9.06504E-005	9	...........
	1356	27.14	1.20512E-001	-3.11263E-005	0.00000E+000	1.20850E-001	8.62301E-005	9	...........
	1360	27.22	1.16736E-001	-3.19874E-005	0.00000E+000	1.16850E-001	9.00666E-005	9	...........
	1364	27.3	1.12464E-001	-3.29886E-005	0.00000E+000	1.12850E-001	8.78147E-005	9	...........
	1368	27.38	1.08494E-001	-3.40660E-005	0.00000E+000	1.08850E-001	9.30690E-005	9	...........
	1372	27.46	1.04483E-001	-3.48230E-005	0.00000E+000	1.04850E-001	8.70641E-005	9	...........
	1376	27.54	1.00602E-001	-3.54320E-005	0.00000E+000	1.00850E-001	9.38196E-005	9	...........
	1380	27.62	9.64963E-002	-3.60624E-005	0.00000E+000	9.68500E-002	9.00666E-005	9	...........
	1384	27.7	9.26338E-002	-3.67866E-005	0.00000E+000	9.28500E-002	8.98163E-005	9	...........
	1388	27.78	8.84874E-002	-3.75576E-005	0.00000E+000	8.88500E-002	9.07338E-005	9	...........
	1392	27.86	8.45431E-002	-3.77340E-005	0.00000E+000	8.48500E-002	9.15678E-005	9	...........
	1396	27.94	8.05248E-002	-3.86737E-005	0.00000E+000	8.08500E-002	9.63217E-005	9	...........
	1400	28.02	7.66644E-002	-3.91785E-005	0.00000E+000	7.68500E-002	9.26520E-005	9	...........
	1404	28.1	7.25577E-002	-3.96827E-005	0.00000E+000	7.28500E-002	8.98998E-005	9	...........
	1408	28.18	6.86716E-002	-4.04372E-005	0.00000E+000	6.88500E-002	8.89823E-005	9	...........
	1412	28.26	6.44730E-002	-4.09023E-005	0.00000E+000	6.48500E-002	9.34026E-005	9	...........
	1416	28.34	6.05581E-002	-4.07739E-005	0.00000E+000	6.08500E-002	8.74811E-005	9	...........
	1420	28.42	5.65359E-002	-4.10661E-005	0.00000E+000	5.68500E-002	9.28188E-005	9	...........
	1424	28.5	5.26908E-002	-4.11777E-005	0.00000E+000	5.28500E-002	9.36528E-005	9	...........
	1428	28.58	4.85703E-002	-4.13986E-005	0.00000E+000	4.88500E-002	8.73977E-005	9	...........
	1432	28.66	4.47002E-002	-4.16700E-005	0.00000E+000	4.48500E-002	9.24852E-005	9	...........
	1436	28.74	4.05384E-002	-4.15292E-005	0.00000E+000	4.08500E-002	9.44868E-005	9	...........
	1440	28.82	3.65509E-002	-4.13936E-005	0.00000E+000	3.68500E-002	9.34026E-005	9	...........
	1444	28.9	3.25270E-002	-4.10311E-005	0.00000E+000	3.28500E-002	8.81483E-005	9	...........
	1448	28.98	2.86629E-002	-4.13340E-005	0.00000E+000	2.88500E-002	8.80649E-005	9	...........
	1452	29.06	2.45818E-002	-4.13323E-005	0.00000E+000	2.48500E-002	9.15678E-005	9	...........
	1456	29.14	2.07624E-002	-4.13310E-005	0.00000E+000	2.08500E-002	8.83151E-005	9	...........
	1460	29.22	1.65876E-002	-4.11148E-005	0.00000E+000	1.68500E-002	8.99832E-005	9	...........
	1464	29.3	1.25371E-002	-4.04736E-005	0.00000E+000	1.28500E-002	9.34860E-005	9	...........
	1468	29.38	8.52802E-003	-3.99168E-005	0.00000E+000	8.85000E-003	9.67387E-005	9	...........
	1472	29.46	4.58713E-003	-3.96991E-005	0.00000E+000	4.85001E-003	9.16512E-005	9	...........
	1476	29.54	5.20888E-004	-3.94570E-005	0.00000E+000	8.50007E-004	9.71557E-005	9	...........
	1480	29.62	-3.26396E-003	-3.87858E-005	0.00000E+000	-3.14999E-003	9.02334E-005	9	...........
	1484	29.7	-7.41894E-003	-3.85206E-005	0.00000E+000	-7.14999E-003	9.01500E-005	9	...........
	1488	29.78	-1.12846E-002	-3.82326E-005	0.00000E+000	-1.11500E-002	9.22350E-005	9	...........
	1492	29.86	-1.53815E-002	-3.80717E-005	0.00000E+000	-1.51500E-002	8.85653E-005	9	...........
	1496	29.94	-1.93133E-002	-3.78280E-005	0.00000E+000	-1.91500E-002	9.19014E-005	9	...........
	1500	30.02	-2.34071E-002	-3.79307E-005	0.00000E+000	-2.31500E-002	9.01500E-005	9	...........
	1504	30.1	-2.72670E-002	-3.77234E-005	0.00000E+000	-2.71500E-002	9.64885E-005	9	...........
	1508	30.18	-3.14005E-002	-3.71716E-005	0.00000E+000	-3.11500E-002	9.24852E-005	9	...........
	1512	30.26	-3.52494E-002	-3.69752E-005	0.00000E+000	-3.51500E-002	8.72309E-005	9	...........
	1516	30.34	-3.93601E-002	-3.68212E-005	0.00000E+000	-3.91500E-002	9.19014E-005	9	...........
	1520	30.42	-4.33035E-002	-3.70316E-005	0.00000E+000	-4.31500E-002	8.95661E-005	9	...........
	1524	30.5	-4.73879E-002	-3.65335E-005	0.00000E+000	-4.71500E-002	8.93993E-005	9	...........
	1528	30.58	-5.12531E-002	-3.66353E-005	0.00000E+000	-5.11500E-002	9.21516E-005	9	...........
	1532	30.66	-5.53906E-002	-3.66623E-005	0.00000E+000	-5.51500E-002	9.44868E-005	9	...........
	1536	30.74	-5.93338E-002	-3.68751E-005	0.00000E+000	-5.91500E-002	9.47370E-005	9	...........
	1540	30.82	-6.34213E-002	-3.72244E-005	0.00000E+000	-6.31500E-002	9.82399E-005	9	...........
	1544	30.9	-6.73172E-002	-3.73679E-005	0.00000E+000	-6.71500E-002	9.97411E-005	9	...........
	1548	30.98	-7.13749E-002	-3.71477E-005	0.00000E+000	-7.11500E-002	9.34860E-005	9	...........
	1552	31.06	-7.52441E-002	-3.72883E-005	0.00000E+000	-7.51500E-002	9.58213E-005	9	...........
	1556	31.14	-7.93629E-002	-3.73958E-005	0.00000E+000	-7.91500E-002	9.24852E-005	9	...........
	1560	31.22	-8.32383E-002	-3.75107E-005	0.00000E+000	-8.31500E-002	9.65719E-005	9	...........
	1564	31.3	-8.73991E-002	-3.80807E-005	0.00000E+000	-8.71500E-002	9.40698E-005	9	...........
	1568	31.38	-9.13147E-002	-3.79729E-005	0.00000E+000	-9.11500E-002	9.55711E-005	9	...........
	1572	31.46	-9.53513E-002	-3.80657E-005	0.00000E+000	-9.51500E-002	9.37362E-005	9	...........
	1576	31.54	-9.92619E-002	-3.79367E-005	0.00000E+000	-9.91500E-002	9.77395E-005	9	...........
	1580	31.62	-1.03350E-001	-3.86730E-005	0.00000E+000	-1.03150E-001	9.38196E-005	9	...........
	1584	31.7	-1.07239E-001	-3.89900E-005	0.00000E+000	-1.07150E-001	9.33192E-005	9	...........
	1588	31.78	-1.11376E-001	-3.92167E-005	0.00000E+000	-1.11150E-001	9.63217E-005	9	...........
	1592	31.86	-1.15294E-001	-3.92437E-005	0.00000E+000	-1.15150E-001	1.00492E-004	9	...........
	1596	31.94	-1.19318E-001	-3.92135E-005	0.00000E+000	-1.19150E-001	9.81565E-005	9	...........
	1600	32.02	-1.23256E-001	-3.93868E-005	0.00000E+000	-1.23150E-001	9.44868E-005	9	...........
	1604	32.1	-1.27373E-001	-3.95091E-005	0.00000E+000	-1.27150E-001	9.87403E-005	9	...........
	1608	32.18	-1.31226E-001	-3.97835E-005	0.00000E+000	-1.31150E-001	9.63217E-005	9	...........
[...]
	13582	271.66	-2.95005E-001	-1.38986E-005	0.00000E+000	-2.95000E-001	7.48875E-005	9	...........
	13584	271.7	-2.92842E-001	-1.41237E-005	0.00000E+000	-2.93000E-001	8.27272E-005	9	...........
	13586	271.74	-2.90961E-001	-1.36980E-005	0.00000E+000	-2.91000E-001	8.41450E-005	9	...........
	13588	271.78	-2.89003E-001	-1.38272E-005	0.00000E+000	-2.89000E-001	7.98916E-005	9	...........
	13590	271.82	-2.86985E-001	-1.35538E-005	0.00000E+000	-2.87000E-001	8.47289E-005	9	...........
	13592	271.86	-2.84842E-001	-1.38019E-005	0.00000E+000	-2.85000E-001	7.37198E-005	9	...........
	13594	271.9	-2.82955E-001	-1.32571E-005	0.00000E+000	-2.83000E-001	7.78065E-005	9	...........
	13596	271.94	-2.81015E-001	-1.33283E-005	0.00000E+000	-2.81000E-001	8.62301E-005	9	...........
	13598	271.98	-2.79012E-001	-1.33068E-005	0.00000E+000	-2.79000E-001	8.74811E-005	9	...........
	13600	272.02	-2.76916E-001	-1.34606E-005	0.00000E+000	-2.77000E-001	7.72227E-005	9	...........
	13602	272.06	-2.74992E-001	-1.31396E-005	0.00000E+000	-2.75000E-001	8.05588E-005	9	...........
	13604	272.1	-2.73013E-001	-1.30958E-005	0.00000E+000	-2.73000E-001	8.63135E-005	9	...........
	13606	272.14	-2.71022E-001	-1.30859E-005	0.00000E+000	-2.71000E-001	8.18932E-005	9	...........
	13608	272.18	-2.68995E-001	-1.28320E-005	0.00000E+000	-2.69000E-001	8.78147E-005	9	...........
	13610	272.22	-2.67011E-001	-1.30052E-005	0.00000E+000	-2.67000E-001	8.38948E-005	9	...........
	13612	272.26	-2.65012E-001	-1.27875E-005	0.00000E+000	-2.65000E-001	8.30608E-005	9	...........
	13614	272.3	-2.63025E-001	-1.29591E-005	0.00000E+000	-2.63000E-001	7.90576E-005	9	...........
	13616	272.34	-2.60851E-001	-1.27221E-005	0.00000E+000	-2.61000E-001	7.29692E-005	9	...........
	13618	272.38	-2.58990E-001	-1.25495E-005	0.00000E+000	-2.59000E-001	8.00584E-005	9	...........
	13620	272.42	-2.57013E-001	-1.23418E-005	0.00000E+000	-2.57000E-001	8.36446E-005	9	...........
	13622	272.46	-2.55021E-001	-1.26105E-005	0.00000E+000	-2.55000E-001	8.77313E-005	9	...........
	13624	272.5	-2.52888E-001	-1.23833E-005	0.00000E+000	-2.53000E-001	8.25604E-005	9	...........
	13626	272.54	-2.51000E-001	-1.23519E-005	0.00000E+000	-2.51000E-001	8.78147E-005	9	...........
	13628	272.58	-2.49012E-001	-1.26317E-005	0.00000E+000	-2.49000E-001	8.40616E-005	9	...........
	13630	272.62	-2.47024E-001	-1.21499E-005	0.00000E+000	-2.47000E-001	8.23936E-005	9	...........
	13632	272.66	-2.44999E-001	-1.21586E-005	0.00000E+000	-2.45000E-001	7.17182E-005	9	...........
	13634	272.7	-2.43023E-001	-1.20142E-005	0.00000E+000	-2.43000E-001	8.24770E-005	9	...........
	13636	272.74	-2.41024E-001	-1.21903E-005	0.00000E+000	-2.41000E-001	8.50625E-005	9	...........
	13638	272.78	-2.39015E-001	-1.18312E-005	0.00000E+000	-2.39000E-001	8.53961E-005	9	...........
	13640	272.82	-2.36858E-001	-1.18834E-005	0.00000E+000	-2.37000E-001	7.98916E-005	9	...........
	13642	272.86	-2.34986E-001	-1.14502E-005	0.00000E+000	-2.35000E-001	8.61467E-005	9	...........
	13644	272.9	-2.33010E-001	-1.18045E-005	0.00000E+000	-2.33000E-001	8.68139E-005	9	...........
	13646	272.94	-2.31022E-001	-1.15234E-005	0.00000E+000	-2.31000E-001	8.23102E-005	9	...........
	13648	272.98	-2.28879E-001	-1.14413E-005	0.00000E+000	-2.29000E-001	7.61385E-005	9	...........
	13650	273.02	-2.27011E-001	-1.14882E-005	0.00000E+000	-2.27000E-001	8.48957E-005	9	...........
	13652	273.06	-2.25028E-001	-1.11609E-005	0.00000E+000	-2.25000E-001	7.87239E-005	9	...........
	13654	273.1	-2.23038E-001	-1.14692E-005	0.00000E+000	-2.23000E-001	8.41450E-005	9	...........
	13656	273.14	-2.20999E-001	-1.11769E-005	0.00000E+000	-2.21000E-001	8.33110E-005	9	...........
	13658	273.18	-2.19045E-001	-1.12505E-005	0.00000E+000	-2.19000E-001	8.33944E-005	9	...........
	13660	273.22	-2.17059E-001	-1.09799E-005	0.00000E+000	-2.17000E-001	8.04754E-005	9	...........
	13662	273.26	-2.15059E-001	-1.10480E-005	0.00000E+000	-2.15000E-001	8.83151E-005	9	...........
	13664	273.3	-2.12976E-001	-1.08847E-005	0.00000E+000	-2.13000E-001	7.43037E-005	9	...........
	13666	273.34	-2.11021E-001	-1.09502E-005	0.00000E+000	-2.11000E-001	8.30608E-005	9	...........
	13668	273.38	-2.09026E-001	-1.09264E-005	0.00000E+000	-2.09000E-001	7.78065E-005	9	...........
	13670	273.42	-2.07030E-001	-1.06368E-005	0.00000E+000	-2.07000E-001	8.48957E-005	9	...........
	13672	273.46	-2.04901E-001	-1.08096E-005	0.00000E+000	-2.05000E-001	7.83069E-005	9	...........
	13674	273.5	-2.03037E-001	-1.05010E-005	0.00000E+000	-2.03000E-001	7.92243E-005	9	...........
	13676	273.54	-2.01046E-001	-1.05550E-005	0.00000E+000	-2.01000E-001	7.95580E-005	9	...........
	13678	273.58	-1.99083E-001	-1.02449E-005	0.00000E+000	-1.99000E-001	8.33944E-005	9	...........
	13680	273.62	-1.97030E-001	-1.03664E-005	0.00000E+000	-1.97000E-001	7.56381E-005	9	...........
	13682	273.66	-1.95061E-001	-1.01821E-005	0.00000E+000	-1.95000E-001	8.38948E-005	9	...........
	13684	273.7	-1.93080E-001	-1.02239E-005	0.00000E+000	-1.93000E-001	8.03920E-005	9	...........
	13686	273.74	-1.91087E-001	-9.94085E-006	0.00000E+000	-1.91000E-001	8.33944E-005	9	...........
	13688	273.78	-1.88886E-001	-9.87996E-006	0.00000E+000	-1.89000E-001	7.93912E-005	9	...........
	13690	273.82	-1.87037E-001	-9.98305E-006	0.00000E+000	-1.87000E-001	8.39782E-005	9	...........
	13692	273.86	-1.85055E-001	-9.97838E-006	0.00000E+000	-1.85000E-001	8.06422E-005	9	...........
	13694	273.9	-1.83058E-001	-9.73967E-006	0.00000E+000	-1.83000E-001	8.80649E-005	9	...........
	13696	273.94	-1.80937E-001	-9.51214E-006	0.00000E+000	-1.81000E-001	7.95580E-005	9	...........
	13698	273.98	-1.79047E-001	-9.82725E-006	0.00000E+000	-1.79000E-001	8.19766E-005	9	...........
	13700	274.02	-1.77055E-001	-9.49563E-006	0.00000E+000	-1.77000E-001	7.84737E-005	9	...........
	13702	274.06	-1.75080E-001	-9.52398E-006	0.00000E+000	-1.75000E-001	8.31442E-005	9	...........
	13704	274.1	-1.73037E-001	-9.37686E-006	0.00000E+000	-1.73000E-001	7.95580E-005	9	...........
	13706	274.14	-1.71079E-001	-9.38920E-006	0.00000E+000	-1.71000E-001	8.50625E-005	9	...........
	13708	274.18	-1.69098E-001	-9.23523E-006	0.00000E+000	-1.69000E-001	8.12260E-005	9	...........
	13710	274.22	-1.67110E-001	-9.12263E-006	0.00000E+000	-1.67000E-001	8.63135E-005	9	...........
	13712	274.26	-1.64965E-001	-9.08427E-006	0.00000E+000	-1.65000E-001	7.64721E-005	9	...........
	13714	274.3	-1.63055E-001	-9.05391E-006	0.00000E+000	-1.63000E-001	8.07256E-005	9	...........
	13716	274.34	-1.61054E-001	-8.95432E-006	0.00000E+000	-1.61000E-001	8.00584E-005	9	...........
	13718	274.38	-1.59082E-001	-8.70978E-006	0.00000E+000	-1.59000E-001	8.38948E-005	9	...........
	13720	274.42	-1.56959E-001	-9.03239E-006	0.00000E+000	-1.57000E-001	7.75563E-005	9	...........
	13722	274.46	-1.55053E-001	-8.59217E-006	0.00000E+000	-1.55000E-001	8.71475E-005	9	...........
	13724	274.5	-1.53067E-001	-8.70527E-006	0.00000E+000	-1.53000E-001	8.68973E-005	9	...........
	13726	274.54	-1.51091E-001	-8.44404E-006	0.00000E+000	-1.51000E-001	9.44868E-005	9	...........
	13728	274.58	-1.49043E-001	-8.56632E-006	0.00000E+000	-1.49000E-001	8.47289E-005	9	...........
	13730	274.62	-1.47073E-001	-8.28474E-006	0.00000E+000	-1.47000E-001	8.87321E-005	9	...........
	13732	274.66	-1.45093E-001	-8.20200E-006	0.00000E+000	-1.45000E-001	8.42284E-005	9	...........
	13734	274.7	-1.43106E-001	-8.29341E-006	0.00000E+000	-1.43000E-001	8.58131E-005	9	...........
	13736	274.74	-1.41101E-001	-7.98414E-006	0.00000E+000	-1.41000E-001	7.73061E-005	9	...........
	13738	274.78	-1.39062E-001	-8.23086E-006	0.00000E+000	-1.39000E-001	8.38114E-005	9	...........
	13740	274.82	-1.37051E-001	-7.90958E-006	0.00000E+000	-1.37000E-001	8.36446E-005	9	...........
	13742	274.86	-1.35081E-001	-8.11309E-006	0.00000E+000	-1.35000E-001	8.65637E-005	9	...........
	13744	274.9	-1.32900E-001	-7.84285E-006	0.00000E+000	-1.33000E-001	7.45539E-005	9	...........
	13746	274.94	-1.31049E-001	-7.74393E-006	0.00000E+000	-1.31000E-001	8.78981E-005	9	...........
	13748	274.98	-1.29052E-001	-7.66253E-006	0.00000E+000	-1.29000E-001	7.73895E-005	9	...........
	13750	275.02	-1.27105E-001	-7.70473E-006	0.00000E+000	-1.27000E-001	8.39782E-005	9	...........
	13752	275.06	-1.25027E-001	-7.51690E-006	0.00000E+000	-1.25000E-001	7.85571E-005	9	...........
	13754	275.1	-1.23081E-001	-7.54293E-006	0.00000E+000	-1.23000E-001	8.48123E-005	9	...........
	13756	275.14	-1.21106E-001	-7.45819E-006	0.00000E+000	-1.21000E-001	8.03920E-005	9	...........
	13758	275.18	-1.19128E-001	-7.23382E-006	0.00000E+000	-1.19000E-001	8.88155E-005	9	...........
	13760	275.22	-1.17122E-001	-7.46336E-006	0.00000E+000	-1.17000E-001	8.80649E-005	9	...........
	13762	275.26	-1.15079E-001	-7.25651E-006	0.00000E+000	-1.15000E-001	8.64803E-005	9	...........
	13764	275.3	-1.13087E-001	-7.29071E-006	0.00000E+000	-1.13000E-001	8.35612E-005	9	...........
	13766	275.34	-1.11118E-001	-6.90637E-006	0.00000E+000	-1.11000E-001	9.05670E-005	9	...........
	13768	275.38	-1.08988E-001	-7.00529E-006	0.00000E+000	-1.09000E-001	7.94746E-005	9	...........
	13770	275.42	-1.07066E-001	-6.80462E-006	0.00000E+000	-1.07000E-001	8.33110E-005	9	...........
	13772	275.46	-1.05066E-001	-6.83698E-006	0.00000E+000	-1.05000E-001	7.78065E-005	9	...........
	13774	275.5	-1.03103E-001	-6.64681E-006	0.00000E+000	-1.03000E-001	8.08090E-005	9	...........
	13776	275.54	-1.01048E-001	-6.63614E-006	0.00000E+000	-1.01000E-001	8.23936E-005	9	...........
	13778	275.58	-9.90989E-002	-6.64498E-006	0.00000E+000	-9.90000E-002	8.78981E-005	9	...........
	13780	275.62	-9.71249E-002	-6.29451E-006	0.00000E+000	-9.70000E-002	7.97248E-005	9	...........
	13782	275.66	-9.51502E-002	-6.47116E-006	0.00000E+000	-9.50000E-002	8.65637E-005	9	...........
	13784	275.7	-9.31480E-002	-6.11935E-006	0.00000E+000	-9.30000E-002	7.82235E-005	9	...........
	13786	275.74	-9.11412E-002	-6.53171E-006	0.00000E+000	-9.10000E-002	8.40616E-005	9	...........
	13788	275.78	-8.91260E-002	-6.29184E-006	0.00000E+000	-8.90000E-002	8.38114E-005	9	...........
	13790	275.82	-8.71338E-002	-6.33804E-006	0.00000E+000	-8.70000E-002	8.61467E-005	9	...........
	13792	275.86	-8.50748E-002	-6.16072E-006	0.00000E+000	-8.50000E-002	8.48957E-005	9	...........
	13794	275.9	-8.30773E-002	-6.05580E-006	0.00000E+000	-8.30000E-002	9.04002E-005	9	...........
	13796	275.94	-8.10870E-002	-5.94020E-006	0.00000E+000	-8.10000E-002	8.26438E-005	9	...........
	13798	275.98	-7.91081E-002	-5.91668E-006	0.00000E+000	-7.90000E-002	8.56463E-005	9	...........
	13800	276.02	-7.70514E-002	-5.87297E-006	0.00000E+000	-7.70000E-002	7.84737E-005	9	...........
	13802	276.06	-7.51117E-002	-5.67380E-006	0.00000E+000	-7.50000E-002	8.49791E-005	9	...........
	13804	276.1	-7.31291E-002	-5.86930E-006	0.00000E+000	-7.30000E-002	7.72227E-005	9	...........
	13806	276.14	-7.11650E-002	-5.57988E-006	0.00000E+000	-7.10000E-002	7.68057E-005	9	...........
	13808	276.18	-6.91499E-002	-5.55419E-006	0.00000E+000	-6.90000E-002	7.20518E-005	9	...........
	13810	276.22	-6.71534E-002	-5.39856E-006	0.00000E+000	-6.70000E-002	8.49791E-005	9	...........
	13812	276.26	-6.51653E-002	-5.55369E-006	0.00000E+000	-6.50000E-002	8.12260E-005	9	...........
	13814	276.3	-6.31823E-002	-5.32816E-006	0.00000E+000	-6.30000E-002	8.49791E-005	9	...........
	13816	276.34	-6.10932E-002	-5.24059E-006	0.00000E+000	-6.10000E-002	8.26438E-005	9	...........
	13818	276.38	-5.91398E-002	-5.18954E-006	0.00000E+000	-5.90000E-002	8.87321E-005	9	...........
	13820	276.42	-5.71336E-002	-5.10964E-006	0.00000E+000	-5.70000E-002	8.10592E-005	9	...........
	13822	276.46	-5.51528E-002	-5.02457E-006	0.00000E+000	-5.50000E-002	8.23102E-005	9	...........
	13824	276.5	-5.31431E-002	-4.87193E-006	0.00000E+000	-5.30000E-002	8.00584E-005	9	...........
	13826	276.54	-5.11323E-002	-5.04141E-006	0.00000E+000	-5.10000E-002	8.23102E-005	9	...........
	13828	276.58	-4.91301E-002	-4.75033E-006	0.00000E+000	-4.90000E-002	8.63969E-005	9	...........
	13830	276.62	-4.71647E-002	-4.81839E-006	0.00000E+000	-4.70000E-002	8.72309E-005	9	...........
	13832	276.66	-4.51703E-002	-4.58785E-006	0.00000E+000	-4.50000E-002	7.98916E-005	9	...........
	13834	276.7	-4.31539E-002	-4.73965E-006	0.00000E+000	-4.30000E-002	8.97329E-005	9	...........
	13836	276.74	-4.11666E-002	-4.57034E-006	0.00000E+000	-4.10000E-002	8.38114E-005	9	...........
	13838	276.78	-3.91830E-002	-4.42054E-006	0.00000E+000	-3.90000E-002	8.54795E-005	9	...........
	13840	276.82	-3.70822E-002	-4.51679E-006	0.00000E+000	-3.70000E-002	8.08924E-005	9	...........
	13842	276.86	-3.51063E-002	-4.28476E-006	0.00000E+000	-3.50000E-002	8.51459E-005	9	...........
	13844	276.9	-3.31265E-002	-4.22203E-006	0.00000E+000	-3.30000E-002	7.78899E-005	9	...........
	13846	276.94	-3.11560E-002	-4.09359E-006	0.00000E+000	-3.10000E-002	8.54795E-005	9	...........
	13848	276.98	-2.90951E-002	-4.27074E-006	0.00000E+000	-2.90000E-002	7.92243E-005	9	...........
	13850	277.02	-2.71320E-002	-3.96498E-006	0.00000E+000	-2.70000E-002	8.94827E-005	9	...........
	13852	277.06	-2.51852E-002	-4.12145E-006	0.00000E+000	-2.50000E-002	8.48957E-005	9	...........
	13854	277.1	-2.32033E-002	-3.69941E-006	0.00000E+000	-2.30000E-002	8.61467E-005	9	...........
	13856	277.14	-2.12042E-002	-3.89575E-006	0.00000E+000	-2.10000E-002	7.99750E-005	9	...........
	13858	277.18	-1.91660E-002	-3.81335E-006	0.00000E+000	-1.90000E-002	8.45620E-005	9	...........
	13860	277.22	-1.71890E-002	-3.71142E-006	0.00000E+000	-1.70000E-002	7.69725E-005	9	...........
	13862	277.26	-1.52015E-002	-3.64503E-006	0.00000E+000	-1.50000E-002	8.36446E-005	9	...........
	13864	277.3	-1.31982E-002	-3.50541E-006	0.00000E+000	-1.30000E-002	8.26438E-005	9	...........
	13866	277.34	-1.11505E-002	-3.49023E-006	0.00000E+000	-1.10000E-002	8.68973E-005	9	...........
	13868	277.38	-9.15511E-003	-3.39698E-006	0.00000E+000	-9.00000E-003	8.53961E-005	9	...........
	13870	277.42	-7.21653E-003	-3.47038E-006	0.00000E+000	-7.00000E-003	8.64803E-005	9	...........
	13872	277.46	-5.09496E-003	-3.25252E-006	0.00000E+000	-5.00000E-003	8.59799E-005	9	...........
	13874	277.5	-3.14870E-003	-3.39048E-006	0.00000E+000	-3.00000E-003	8.23102E-005	9	...........
	13876	277.54	-1.17492E-003	-3.13425E-006	0.00000E+000	-9.99995E-004	8.08090E-005	9	...........
	13878	277.58	6.60752E-004	-3.11023E-006	0.00000E+000	1.00000E-003	8.35612E-005	9	...........
	13880	277.62	2.69083E-003	-3.10523E-006	0.00000E+000	3.00001E-003	9.14010E-005	9	...........
	13882	277.66	4.76703E-003	-2.98029E-006	0.00000E+000	5.00000E-003	8.99832E-005	9	...........
	13884	277.7	6.71879E-003	-3.19614E-006	0.00000E+000	7.00001E-003	8.93159E-005	9	...........
	13886	277.74	8.69307E-003	-2.89038E-006	0.00000E+000	9.00000E-003	8.95661E-005	9	...........
	13888	277.78	1.06931E-002	-2.80680E-006	0.00000E+000	1.10000E-002	8.64803E-005	9	...........
	13890	277.82	1.27532E-002	-2.66251E-006	0.00000E+000	1.30000E-002	8.11426E-005	9	...........
	13892	277.86	1.47521E-002	-2.79029E-006	0.00000E+000	1.50000E-002	8.53961E-005	9	...........
	13894	277.9	1.66302E-002	-2.53273E-006	0.00000E+000	1.70000E-002	8.18932E-005	9	...........
	13896	277.94	1.87611E-002	-2.67786E-006	0.00000E+000	1.90000E-002	8.10592E-005	9	...........
	13898	277.98	2.08097E-002	-2.40495E-006	0.00000E+000	2.10000E-002	7.88907E-005	9	...........
	13900	278.02	2.27674E-002	-2.48285E-006	0.00000E+000	2.30000E-002	8.31442E-005	9	...........
	13902	278.06	2.46758E-002	-2.49069E-006	0.00000E+000	2.50000E-002	8.62301E-005	9	...........
	13904	278.1	2.67348E-002	-2.41446E-006	0.00000E+000	2.70000E-002	8.19766E-005	9	...........
	13906	278.14	2.87970E-002	-2.61363E-006	0.00000E+000	2.90000E-002	8.64803E-005	9	...........
	13908	278.18	3.07293E-002	-2.05148E-006	0.00000E+000	3.10000E-002	7.60551E-005	9	...........
	13910	278.22	3.26827E-002	-2.02262E-006	0.00000E+000	3.30000E-002	8.09758E-005	9	...........
	13912	278.26	3.47155E-002	-1.93488E-006	0.00000E+000	3.50000E-002	8.05588E-005	9	...........
	13914	278.3	3.67509E-002	-2.06883E-006	0.00000E+000	3.70000E-002	8.07256E-005	9	...........
	13916	278.34	3.86548E-002	-1.84780E-006	0.00000E+000	3.90000E-002	8.76479E-005	9	...........
	13918	278.38	4.06198E-002	-1.98742E-006	0.00000E+000	4.10000E-002	8.10592E-005	9	...........
	13920	278.42	4.26952E-002	-1.77424E-006	0.00000E+000	4.30000E-002	8.41450E-005	9	...........
	13922	278.46	4.47980E-002	-1.73587E-006	0.00000E+000	4.50000E-002	8.09758E-005	9	...........
	13924	278.5	4.67277E-002	-1.55054E-006	0.00000E+000	4.70000E-002	7.87239E-005	9	...........
	13926	278.54	4.86524E-002	-1.47948E-006	0.00000E+000	4.90000E-002	7.49709E-005	9	...........
	13928	278.58	5.07210E-002	-1.63361E-006	0.00000E+000	5.10000E-002	7.49709E-005	9	...........
	13930	278.62	5.27983E-002	-1.39858E-006	0.00000E+000	5.30000E-002	7.43037E-005	9	...........
	13932	278.66	5.47255E-002	-1.46313E-006	0.00000E+000	5.50000E-002	7.57215E-005	9	...........
	13934	278.7	5.66720E-002	-1.30433E-006	0.00000E+000	5.70000E-002	8.14762E-005	9	...........
	13936	278.74	5.87153E-002	-1.35220E-006	0.00000E+000	5.90000E-002	7.98082E-005	9	...........
	13938	278.78	6.07628E-002	-1.14969E-006	0.00000E+000	6.10000E-002	7.81401E-005	9	...........
	13940	278.82	6.27046E-002	-1.33085E-006	0.00000E+000	6.30000E-002	7.74729E-005	9	...........
	13942	278.86	6.46192E-002	-1.04444E-006	0.00000E+000	6.50000E-002	8.06422E-005	9	...........
	13944	278.9	6.67239E-002	-1.11483E-006	0.00000E+000	6.70000E-002	8.69807E-005	9	...........
	13946	278.94	6.87922E-002	-1.08213E-006	0.00000E+000	6.90000E-002	7.91409E-005	9	...........
	13948	278.98	7.07191E-002	-8.16737E-007	0.00000E+000	7.10000E-002	8.06422E-005	9	...........
	13950	279.02	7.26371E-002	-1.09648E-006	0.00000E+000	7.30000E-002	8.57297E-005	9	...........
	13952	279.06	7.46964E-002	-7.62523E-007	0.00000E+000	7.50000E-002	8.59799E-005	9	...........
	13954	279.1	7.67960E-002	-9.31503E-007	0.00000E+000	7.70000E-002	8.01418E-005	9	...........
	13956	279.14	7.87053E-002	-6.65772E-007	0.00000E+000	7.90000E-002	8.67305E-005	9	...........
	13958	279.18	8.06524E-002	-6.79117E-007	0.00000E+000	8.10000E-002	8.18098E-005	9	...........
	13960	279.22	8.26922E-002	-5.05966E-007	0.00000E+000	8.30000E-002	7.80567E-005	9	...........
	13962	279.26	8.47647E-002	-7.27492E-007	0.00000E+000	8.50000E-002	7.70559E-005	9	...........
	13964	279.3	8.66926E-002	-4.58258E-007	0.00000E+000	8.70000E-002	8.01418E-005	9	...........
	13966	279.34	8.86632E-002	-3.50664E-007	0.00000E+000	8.90000E-002	8.13928E-005	9	...........
	13968	279.38	9.07004E-002	-4.75940E-007	0.00000E+000	9.10000E-002	8.16430E-005	9	...........
	13970	279.42	9.27804E-002	-3.75186E-007	0.00000E+000	9.30000E-002	7.78065E-005	9	...........
	13972	279.46	9.46871E-002	-3.45160E-007	0.00000E+000	9.50000E-002	8.18932E-005	9	...........
	13974	279.5	9.66176E-002	-2.17382E-007	0.00000E+000	9.70000E-002	7.66389E-005	9	...........
	13976	279.54	9.86624E-002	-3.66512E-007	0.00000E+000	9.90000E-002	8.01418E-005	9	...........
	13978	279.58	1.00785E-001	-4.45647E-008	0.00000E+000	1.01000E-001	7.67223E-005	9	...........
	13980	279.62	1.02653E-001	-1.56829E-007	0.00000E+000	1.03000E-001	8.13094E-005	9	...........
	13982	279.66	1.04613E-001	8.18788E-008	0.00000E+000	1.05000E-001	8.11426E-005	9	...........
	13984	279.7	1.06619E-001	-1.23133E-007	0.00000E+000	1.07000E-001	8.43118E-005	9	...........
	13986	279.74	1.08754E-001	1.20746E-007	0.00000E+000	1.09000E-001	8.54795E-005	9	...........
	13988	279.78	1.10651E-001	1.71957E-007	0.00000E+000	1.11000E-001	8.53127E-005	9	...........
	13990	279.82	1.12633E-001	1.09903E-007	0.00000E+000	1.13000E-001	8.43953E-005	9	...........
	13992	279.86	1.14614E-001	1.73458E-007	0.00000E+000	1.15000E-001	8.43118E-005	9	...........
	13994	279.9	1.16794E-001	1.70623E-007	0.00000E+000	1.17000E-001	8.54795E-005	9	...........
	13996	279.94	1.18661E-001	3.75301E-007	0.00000E+000	1.19000E-001	8.53961E-005	9	...........
	13998	279.98	1.20608E-001	1.28086E-007	0.00000E+000	1.21000E-001	8.11426E-005	9	...........
	14000	280.02	1.22673E-001	3.69796E-007	0.00000E+000	1.23000E-001	8.09758E-005	9	...........