File: 20191216/Matning 1 skit/CVTESTKRISTALL5BOX6_1.DTA
EXPLAIN
TAG	CV
TITLE	LABEL	CV	Test &Identifier
DATE	LABEL	12/16/2019	Date
TIME	LABEL	10:38:18	Time
NOTES	NOTES	1	&Notes...

PSTAT	PSTAT	REF600-16093	Potentiostat
VINIT	POTEN	0.00000E+000	T	Initial &E (V)
VLIMIT1	POTEN	8.00000E-001	F	Scan Limit &1 (V)
VLIMIT2	POTEN	-5.00000E-001	F	Scan Limit &2 (V)
VFINAL	POTEN	0.00000E+000	T	Final &E (V)
SCANRATE	QUANT	4.99999E+001	&Scan Rate (mV/s)
STEPSIZE	QUANT	1.00000E+000	St&ep Size (mV)
CYCLES	IQUANT	5	C&ycles (#)
IMODE	SELECTOR	1	I/E Range &Mode
IRANGE	QUANT	1.50000E+001	&Max Current (mA)
AREA	QUANT	1.00000E+000	Electrode &Area (cm^2)
ELECTRODETYPE	SELECTOR	0	Electrode Type
STRIPPING	TOGGLE	F	Used for Stripping
POLARITY	TOGGLE	F	Signal Polarity
CONDIT	TWOPARAM	F	1.50000E+001	0.00000E+000	Conditionin&g	Time(s)	E(V)
DELAY	TWOPARAM	T	5.00000E+000	0.00000E+000	Init. De&lay	Time(s)	Stab.(mV/s)
EQDELAY	QUANT	3.00000E+000	Equil. &Time (s)
IRCOMP	SELECTOR	0	IRCom&p
PFCOR	QUANT	0.00000E+000	PF Corr. (ohm)
SAMPLINGMODE	SELECTOR	2	Sampling &Mode
OCVCURVE	TABLE	20
	Pt	T	Vf	Vm	Ach	Over
	#	s	V vs. Ref.	V	V	bits
	0	0.25	8.90616E-002	8.90616E-002	7.12687E-005	...........
	1	0.5	8.93660E-002	1.04998E-001	7.34354E-005	...........
	2	0.75	9.11613E-002	1.16222E-001	6.98521E-005	...........
	3	1	9.61729E-002	1.36381E-001	7.10187E-005	...........
	4	1.25	1.04487E-001	1.05603E-001	6.24355E-005	...........
	5	1.5	1.12431E-001	9.89040E-002	7.02687E-005	...........
	6	1.75	1.15018E-001	9.80219E-002	7.29354E-005	...........
	7	2	1.12345E-001	1.43639E-001	6.36438E-005	...........
	8	2.25	1.10698E-001	1.28927E-001	7.35604E-005	...........
	9	2.5	1.14281E-001	1.08387E-001	7.16021E-005	...........
	10	2.75	1.19173E-001	1.01104E-001	7.00187E-005	...........
	11	3	1.19192E-001	9.71566E-002	7.33520E-005	...........
	12	3.25	1.13890E-001	1.07048E-001	7.08104E-005	...........
	13	3.5	1.07731E-001	1.08673E-001	7.35604E-005	...........
	14	3.75	1.04710E-001	1.16290E-001	7.29770E-005	...........
	15	4	1.05607E-001	1.14542E-001	6.98104E-005	...........
	16	4.25	1.08530E-001	1.04262E-001	7.17687E-005	...........
	17	4.5	1.10567E-001	9.95266E-002	7.24354E-005	...........
	18	4.75	1.09923E-001	1.06860E-001	6.80188E-005	...........
	19	5	1.07677E-001	1.15002E-001	7.18520E-005	...........
EOC	QUANT	0.1076768	Open Circuit (V)
PSTATMODEL	IQUANT	4	Pstat Model
PSTATSECTION	LABEL	REF600-16093	Pstat Section
PSTATSERIALNO	LABEL	16093	Pstat Serial Number
CTRLMODE	IQUANT	1	Control Mode
IESTAB	IQUANT	2	I/E Stability
CASPEED	IQUANT	2	Control Amp Speed
CONVENTION	IQUANT	1	Current Convention
ICHRANGE	IQUANT	2	Ich Range
ICHRANGEMODE	TOGGLE	F	Ich Auto Range
ICHOFFSETENABLE	TOGGLE	F	Ich Offset Enable
ICHOFFSET	QUANT	0	Ich Offset (V)
ICHFILTER	IQUANT	2	Ich Filter
VCHRANGE	IQUANT	2	Vch Range
VCHRANGEMODE	TOGGLE	F	Vch Auto Range
VCHOFFSETENABLE	TOGGLE	F	Vch Offset Enable
VCHOFFSET	QUANT	0	Vch Offset (V)
VCHFILTER	IQUANT	2	Vch Filter
ACHRANGE	IQUANT	2	Ach Range
ACHOFFSETENABLE	TOGGLE	F	Ach Offset Enable
ACHOFFSET	QUANT	0	Ach Offset (V)
ACHFILTER	IQUANT	1	Ach Filter
IERANGELOWERLIMIT	IQUANT	1	I/E Range Lower Limit
IERANGEMODE	TOGGLE	F	I/E AutoRange
IERANGE	IQUANT	10	I/E Range
POSFEEDENABLE	TOGGLE	F	Positive Feedback IR Comp
POSFEEDRESISTANCE	QUANT	0	Positive Feedback Resistance (ohm)
ACHSELECT	IQUANT	0	Ach Select
CABLEID	IQUANT	14	Cable ID
DCCALDATE	LABEL	12/10/2019	DC Calibration Date
ACCALDATE	LABEL	12/10/2019	AC Calibration Date
THERMOSELECT	IQUANT	1	Thermo Select
FRAMEWORKVERSION	QUANT	6.12	Framework Version
INSTRUMENTVERSION	LABEL	3.11	Instrument Version
CURVE1	TABLE
	Pt	T	Vf	Im	Vu	Sig	Ach	IERange	Over
	#	s	V vs. Ref.	A	V	V	V	#	bits
	0	0.02	1.07496E-001	1.94397E-006	0.00000E+000	1.07700E-001	1.00064E-004	10	...........
	4	0.1	1.11358E-001	3.08330E-006	0.00000E+000	1.11700E-001	1.00648E-004	10	...........
	8	0.18	1.15394E-001	3.41025E-006	0.00000E+000	1.15700E-001	9.89799E-005	10	...........
	12	0.26	1.19350E-001	3.45362E-006	0.00000E+000	1.19700E-001	9.68949E-005	10	...........
	16	0.34	1.23547E-001	3.91569E-006	0.00000E+000	1.23700E-001	9.91467E-005	10	...........
	20	0.42	1.27354E-001	3.59208E-006	0.00000E+000	1.27700E-001	1.04735E-004	10	...........
	24	0.5	1.31498E-001	3.19173E-006	0.00000E+000	1.31700E-001	1.05569E-004	10	...........
	28	0.58	1.35344E-001	3.75055E-006	0.00000E+000	1.35700E-001	1.00481E-004	10	...........
	32	0.66	1.39361E-001	3.11833E-006	0.00000E+000	1.39700E-001	9.94803E-005	10	...........
	36	0.74	1.43346E-001	3.16003E-006	0.00000E+000	1.43700E-001	1.05652E-004	10	...........
	40	0.82	1.47511E-001	3.21008E-006	0.00000E+000	1.47700E-001	1.02149E-004	10	...........
	44	0.9	1.51339E-001	3.43027E-006	0.00000E+000	1.51700E-001	9.87297E-005	10	...........
	48	0.98	1.55517E-001	4.00910E-006	0.00000E+000	1.55700E-001	9.98973E-005	10	...........
	52	1.06	1.59336E-001	3.86231E-006	0.00000E+000	1.59700E-001	1.02316E-004	10	...........
	56	1.14	1.63395E-001	3.58874E-006	0.00000E+000	1.63700E-001	1.03734E-004	10	...........
	60	1.22	1.67297E-001	3.63878E-006	0.00000E+000	1.67700E-001	9.88965E-005	10	...........
	64	1.3	1.71369E-001	3.52869E-006	0.00000E+000	1.71700E-001	9.83961E-005	10	...........
	68	1.38	1.75347E-001	3.95573E-006	0.00000E+000	1.75700E-001	9.86463E-005	10	...........
	72	1.46	1.79486E-001	3.74221E-006	0.00000E+000	1.79700E-001	1.00231E-004	10	...........
	76	1.54	1.83320E-001	3.31517E-006	0.00000E+000	1.83700E-001	9.57272E-005	10	...........
	80	1.62	1.87371E-001	3.85063E-006	0.00000E+000	1.87700E-001	9.78123E-005	10	...........
	84	1.7	1.91304E-001	4.16257E-006	0.00000E+000	1.91700E-001	9.56438E-005	10	...........
	88	1.78	1.95476E-001	4.98662E-006	0.00000E+000	1.95700E-001	9.88131E-005	10	...........
	92	1.86	1.99306E-001	4.68469E-006	0.00000E+000	1.99700E-001	1.02733E-004	10	...........
	96	1.94	2.03443E-001	5.26520E-006	0.00000E+000	2.03700E-001	1.04067E-004	10	...........
	100	2.02	2.07288E-001	4.96994E-006	0.00000E+000	2.07700E-001	1.00898E-004	10	...........
	104	2.1	2.11316E-001	5.29689E-006	0.00000E+000	2.11700E-001	1.04151E-004	10	...........
	108	2.18	2.15307E-001	5.87740E-006	0.00000E+000	2.15700E-001	9.02227E-005	10	...........
	112	2.26	2.19536E-001	5.47872E-006	0.00000E+000	2.19700E-001	9.94803E-005	10	...........
	116	2.34	2.23272E-001	5.58214E-006	0.00000E+000	2.23700E-001	1.00481E-004	10	...........
	120	2.42	2.27411E-001	5.76063E-006	0.00000E+000	2.27700E-001	9.67281E-005	10	...........
	124	2.5	2.31242E-001	6.15097E-006	0.00000E+000	2.31700E-001	9.83127E-005	10	...........
	128	2.58	2.35346E-001	6.97669E-006	0.00000E+000	2.35700E-001	9.31418E-005	10	...........
	132	2.66	2.39263E-001	6.53797E-006	0.00000E+000	2.39700E-001	9.84795E-005	10	...........
	136	2.74	2.43240E-001	6.72981E-006	0.00000E+000	2.43700E-001	9.53936E-005	10	...........
	140	2.82	2.47256E-001	7.22023E-006	0.00000E+000	2.47700E-001	1.00731E-004	10	...........
	144	2.9	2.51425E-001	7.93752E-006	0.00000E+000	2.51700E-001	1.00398E-004	10	...........
	148	2.98	2.55281E-001	8.74490E-006	0.00000E+000	2.55700E-001	9.93969E-005	10	...........
	152	3.06	2.59306E-001	8.56140E-006	0.00000E+000	2.59700E-001	9.98139E-005	10	...........
	156	3.14	2.63248E-001	8.74656E-006	0.00000E+000	2.63700E-001	9.96471E-005	10	...........
	160	3.22	2.67213E-001	9.23199E-006	0.00000E+000	2.67700E-001	1.02233E-004	10	...........
	164	3.3	2.71262E-001	1.02462E-005	0.00000E+000	2.71700E-001	9.98139E-005	10	...........
	168	3.38	2.75414E-001	1.15907E-005	0.00000E+000	2.75700E-001	8.95555E-005	10	...........
	172	3.46	2.79234E-001	1.10519E-005	0.00000E+000	2.79700E-001	9.91467E-005	10	...........
	176	3.54	2.83294E-001	1.22663E-005	0.00000E+000	2.83700E-001	9.59774E-005	10	...........
	180	3.62	2.87224E-001	1.35924E-005	0.00000E+000	2.87700E-001	9.98973E-005	10	...........
	184	3.7	2.91225E-001	1.43698E-005	0.00000E+000	2.91700E-001	9.83127E-005	10	...........
	188	3.78	2.95202E-001	1.54374E-005	0.00000E+000	2.95700E-001	9.58940E-005	10	...........
	192	3.86	2.99224E-001	1.62281E-005	0.00000E+000	2.99700E-001	9.66446E-005	10	...........
	196	3.94	3.03219E-001	1.72223E-005	0.00000E+000	3.03700E-001	9.61442E-005	10	...........
	200	4.02	3.07260E-001	1.88454E-005	0.00000E+000	3.07700E-001	9.63944E-005	10	...........
	204	4.1	3.11193E-001	2.00898E-005	0.00000E+000	3.11700E-001	9.22244E-005	10	...........
	208	4.18	3.15208E-001	2.18363E-005	0.00000E+000	3.15700E-001	9.92301E-005	10	...........
	212	4.26	3.19165E-001	2.35111E-005	0.00000E+000	3.19700E-001	9.58940E-005	10	...........
	216	4.34	3.23380E-001	2.49690E-005	0.00000E+000	3.23700E-001	9.46430E-005	10	...........
	220	4.42	3.27194E-001	2.71876E-005	0.00000E+000	3.27700E-001	9.53936E-005	10	...........
	224	4.5	3.31214E-001	2.95313E-005	0.00000E+000	3.31700E-001	9.53102E-005	10	...........
	228	4.58	3.35175E-001	3.17666E-005	0.00000E+000	3.35700E-001	9.55604E-005	10	...........
	232	4.66	3.39163E-001	3.41854E-005	0.00000E+000	3.39700E-001	9.61442E-005	10	...........
	236	4.74	3.43166E-001	3.62455E-005	0.00000E+000	3.43700E-001	1.00398E-004	10	...........
	240	4.82	3.47284E-001	3.85242E-005	0.00000E+000	3.47700E-001	9.34754E-005	10	...........
	244	4.9	3.51170E-001	4.05409E-005	0.00000E+000	3.51700E-001	1.01148E-004	10	...........
	248	4.98	3.55182E-001	4.27128E-005	0.00000E+000	3.55700E-001	1.00398E-004	10	...........
	252	5.06	3.59153E-001	4.49281E-005	0.00000E+000	3.59700E-001	9.12236E-005	10	...........
	256	5.14	3.63140E-001	4.72467E-005	0.00000E+000	3.63700E-001	1.00815E-004	10	...........
	260	5.22	3.67161E-001	4.98891E-005	0.00000E+000	3.67700E-001	9.93135E-005	10	...........
	264	5.3	3.71133E-001	5.24580E-005	0.00000E+000	3.71700E-001	9.65613E-005	10	...........
	268	5.38	3.75160E-001	5.47500E-005	0.00000E+000	3.75700E-001	9.94803E-005	10	...........
	272	5.46	3.79216E-001	5.69635E-005	0.00000E+000	3.79700E-001	9.23078E-005	10	...........
	276	5.54	3.83162E-001	5.90854E-005	0.00000E+000	3.83700E-001	9.70617E-005	10	...........
	280	5.62	3.87114E-001	6.16209E-005	0.00000E+000	3.87700E-001	9.81459E-005	10	...........
	284	5.7	3.91151E-001	6.40364E-005	0.00000E+000	3.91700E-001	9.24746E-005	10	...........
	288	5.78	3.95093E-001	6.60631E-005	0.00000E+000	3.95700E-001	9.72285E-005	10	...........
	292	5.86	3.99130E-001	6.90641E-005	0.00000E+000	3.99700E-001	9.20576E-005	10	...........
	296	5.94	4.03115E-001	7.13160E-005	0.00000E+000	4.03700E-001	9.58940E-005	10	...........
	300	6.02	4.07136E-001	7.31993E-005	0.00000E+000	4.07700E-001	1.00648E-004	10	...........
	304	6.1	4.11104E-001	7.68709E-005	0.00000E+000	4.11700E-001	9.77289E-005	10	...........
	308	6.18	4.15096E-001	8.02939E-005	0.00000E+000	4.15700E-001	9.79791E-005	10	...........
	312	6.26	4.19074E-001	8.38987E-005	0.00000E+000	4.19700E-001	1.00565E-004	10	...........
	316	6.34	4.22995E-001	8.72065E-005	0.00000E+000	4.23700E-001	1.08738E-004	10	...........
	320	6.42	4.27108E-001	9.07696E-005	0.00000E+000	4.27700E-001	9.88131E-005	10	...........
	324	6.5	4.31121E-001	9.46547E-005	0.00000E+000	4.31700E-001	1.01399E-004	10	...........
	328	6.58	4.35108E-001	9.87883E-005	0.00000E+000	4.35700E-001	9.97305E-005	10	...........
	332	6.66	4.39106E-001	1.03092E-004	0.00000E+000	4.39700E-001	9.70617E-005	10	...........
	336	6.74	4.43083E-001	1.07738E-004	0.00000E+000	4.43700E-001	9.62276E-005	10	...........
	340	6.82	4.47056E-001	1.11860E-004	0.00000E+000	4.47700E-001	9.90633E-005	10	...........
	344	6.9	4.51039E-001	1.15972E-004	0.00000E+000	4.51700E-001	1.03484E-004	10	...........
	348	6.98	4.55083E-001	1.22339E-004	0.00000E+000	4.55700E-001	9.88131E-005	10	...........
	352	7.06	4.59049E-001	1.28494E-004	0.00000E+000	4.59700E-001	9.90633E-005	10	...........
	356	7.14	4.63094E-001	1.35537E-004	0.00000E+000	4.63700E-001	8.75539E-005	10	...........
	360	7.22	4.67043E-001	1.40178E-004	0.00000E+000	4.67700E-001	9.60608E-005	10	...........
	364	7.3	4.71050E-001	1.46256E-004	0.00000E+000	4.71700E-001	9.84795E-005	10	...........
	368	7.38	4.75215E-001	1.51739E-004	0.00000E+000	4.75700E-001	9.75621E-005	10	...........
	372	7.46	4.79094E-001	1.57625E-004	0.00000E+000	4.79700E-001	9.15572E-005	10	...........
	376	7.54	4.83085E-001	1.64127E-004	0.00000E+000	4.83700E-001	9.35588E-005	10	...........
	380	7.62	4.87045E-001	1.69700E-004	0.00000E+000	4.87700E-001	9.42260E-005	10	...........
	384	7.7	4.91008E-001	1.74484E-004	0.00000E+000	4.91700E-001	1.02566E-004	10	...........
	388	7.78	4.95047E-001	1.78963E-004	0.00000E+000	4.95700E-001	9.96471E-005	10	...........
	392	7.86	4.99015E-001	1.86113E-004	0.00000E+000	4.99700E-001	1.02733E-004	10	...........
	396	7.94	5.03090E-001	1.93157E-004	0.00000E+000	5.03700E-001	9.18908E-005	10	...........
	400	8.02	5.07043E-001	1.98036E-004	0.00000E+000	5.07700E-001	9.82293E-005	10	...........
	404	8.1	5.11066E-001	2.02187E-004	0.00000E+000	5.11700E-001	9.77289E-005	10	...........
	408	8.18	5.14998E-001	2.06033E-004	0.00000E+000	5.15700E-001	1.03984E-004	10	...........
	412	8.26	5.19017E-001	2.09541E-004	0.00000E+000	5.19700E-001	9.68115E-005	10	...........
	416	8.34	5.22986E-001	2.14052E-004	0.00000E+000	5.23700E-001	1.01899E-004	10	...........
	420	8.42	5.27056E-001	2.15792E-004	0.00000E+000	5.27700E-001	1.01315E-004	10	...........
	424	8.5	5.31012E-001	2.18599E-004	0.00000E+000	5.31700E-001	9.98973E-005	10	...........
	428	8.58	5.35037E-001	2.19939E-004	0.00000E+000	5.35700E-001	9.92301E-005	10	...........
	432	8.66	5.38986E-001	2.21824E-004	0.00000E+000	5.39700E-001	9.93969E-005	10	...........
	436	8.74	5.43013E-001	2.25469E-004	0.00000E+000	5.43700E-001	1.04735E-004	10	...........
	440	8.82	5.46958E-001	2.28346E-004	0.00000E+000	5.47700E-001	1.03817E-004	10	...........
	444	8.9	5.50985E-001	2.32383E-004	0.00000E+000	5.51700E-001	1.00398E-004	10	...........
	448	8.98	5.54954E-001	2.33330E-004	0.00000E+000	5.55700E-001	9.89799E-005	10	...........
	452	9.06	5.58997E-001	2.36155E-004	0.00000E+000	5.59700E-001	1.02399E-004	10	...........
	456	9.14	5.62997E-001	2.38757E-004	0.00000E+000	5.63700E-001	9.74787E-005	10	...........
	460	9.22	5.66975E-001	2.41404E-004	0.00000E+000	5.67700E-001	1.07320E-004	10	...........
	464	9.3	5.70958E-001	2.43256E-004	0.00000E+000	5.71700E-001	1.01899E-004	10	...........
	468	9.38	5.74961E-001	2.47057E-004	0.00000E+000	5.75700E-001	1.01148E-004	10	...........
	472	9.46	5.78939E-001	2.49102E-004	0.00000E+000	5.79700E-001	1.05735E-004	10	...........
	476	9.54	5.83005E-001	2.52964E-004	0.00000E+000	5.83700E-001	1.00481E-004	10	...........
	480	9.62	5.86961E-001	2.57131E-004	0.00000E+000	5.87700E-001	1.00398E-004	10	...........
	484	9.7	5.90958E-001	2.63111E-004	0.00000E+000	5.91700E-001	1.03734E-004	10	...........
	488	9.78	5.94920E-001	2.67659E-004	0.00000E+000	5.95700E-001	1.03150E-004	10	...........
	492	9.86	5.98942E-001	2.72231E-004	0.00000E+000	5.99700E-001	1.04985E-004	10	...........
	496	9.94	6.02898E-001	2.76335E-004	0.00000E+000	6.03700E-001	1.01732E-004	10	...........
	500	10.02	6.06955E-001	2.82358E-004	0.00000E+000	6.07700E-001	1.01565E-004	10	...........
	504	10.1	6.10932E-001	2.86819E-004	0.00000E+000	6.11700E-001	1.03984E-004	10	...........
	508	10.18	6.14901E-001	2.90614E-004	0.00000E+000	6.15700E-001	9.49766E-005	10	...........
	512	10.26	6.18893E-001	2.95334E-004	0.00000E+000	6.19700E-001	1.01565E-004	10	...........
	516	10.34	6.22906E-001	2.98119E-004	0.00000E+000	6.23700E-001	1.03901E-004	10	...........
	520	10.42	6.26841E-001	3.01885E-004	0.00000E+000	6.27700E-001	1.02983E-004	10	...........
	524	10.5	6.30904E-001	3.05807E-004	0.00000E+000	6.31700E-001	9.32252E-005	10	...........
	528	10.58	6.34882E-001	3.08591E-004	0.00000E+000	6.35700E-001	9.94803E-005	10	...........
	532	10.66	6.38905E-001	3.08633E-004	0.00000E+000	6.39700E-001	9.93135E-005	10	...........
	536	10.74	6.42857E-001	3.07865E-004	0.00000E+000	6.43700E-001	1.03567E-004	10	...........
	540	10.82	6.46883E-001	3.05383E-004	0.00000E+000	6.47700E-001	1.00731E-004	10	...........
	544	10.9	6.50837E-001	3.04199E-004	0.00000E+000	6.51700E-001	9.82293E-005	10	...........
	548	10.98	6.54907E-001	3.00384E-004	0.00000E+000	6.55700E-001	9.78957E-005	10	...........
	552	11.06	6.58855E-001	2.96242E-004	0.00000E+000	6.59700E-001	9.90633E-005	10	...........
	556	11.14	6.62869E-001	2.90667E-004	0.00000E+000	6.63700E-001	1.03650E-004	10	...........
	560	11.22	6.66816E-001	2.84507E-004	0.00000E+000	6.67700E-001	1.01399E-004	10	...........
	564	11.3	6.70868E-001	2.79269E-004	0.00000E+000	6.71700E-001	1.02816E-004	10	...........
	568	11.38	6.74830E-001	2.73764E-004	0.00000E+000	6.75700E-001	1.03317E-004	10	...........
	572	11.46	6.78920E-001	2.68336E-004	0.00000E+000	6.79700E-001	9.68115E-005	10	...........
	576	11.54	6.82749E-001	2.60884E-004	0.00000E+000	6.83700E-001	1.04568E-004	10	...........
	580	11.62	6.86867E-001	2.53765E-004	0.00000E+000	6.87700E-001	1.03484E-004	10	...........
	584	11.7	6.90867E-001	2.45541E-004	0.00000E+000	6.91700E-001	9.90633E-005	10	...........
	588	11.78	6.94847E-001	2.39673E-004	0.00000E+000	6.95700E-001	9.96471E-005	10	...........
	592	11.86	6.98850E-001	2.33385E-004	0.00000E+000	6.99700E-001	9.52268E-005	10	...........
	596	11.94	7.02841E-001	2.25901E-004	0.00000E+000	7.03700E-001	9.78123E-005	10	...........
	600	12.02	7.06737E-001	2.19685E-004	0.00000E+000	7.07700E-001	9.85629E-005	10	...........
	604	12.1	7.10852E-001	2.12956E-004	0.00000E+000	7.11700E-001	9.72285E-005	10	...........
	608	12.18	7.14797E-001	2.07491E-004	0.00000E+000	7.15700E-001	9.83961E-005	10	...........
	612	12.26	7.18841E-001	2.02782E-004	0.00000E+000	7.19700E-001	9.79791E-005	10	...........
	616	12.34	7.22798E-001	1.96148E-004	0.00000E+000	7.23700E-001	9.94803E-005	10	...........
	620	12.42	7.26825E-001	1.91144E-004	0.00000E+000	7.27700E-001	9.73953E-005	10	...........
	624	12.5	7.30711E-001	1.85335E-004	0.00000E+000	7.31700E-001	9.43094E-005	10	...........
	628	12.58	7.34815E-001	1.80266E-004	0.00000E+000	7.35700E-001	9.97305E-005	10	...........
	632	12.66	7.38803E-001	1.76351E-004	0.00000E+000	7.39700E-001	9.55604E-005	10	...........
	636	12.74	7.42786E-001	1.70713E-004	0.00000E+000	7.43700E-001	9.88965E-005	10	...........
	640	12.82	7.46725E-001	1.66155E-004	0.00000E+000	7.47700E-001	9.69783E-005	10	...........
	644	12.9	7.50799E-001	1.61761E-004	0.00000E+000	7.51700E-001	9.73953E-005	10	...........
	648	12.98	7.54737E-001	1.57751E-004	0.00000E+000	7.55700E-001	9.60608E-005	10	...........
	652	13.06	7.58836E-001	1.54458E-004	0.00000E+000	7.59700E-001	9.98139E-005	10	...........
	656	13.14	7.62725E-001	1.50687E-004	0.00000E+000	7.63700E-001	9.45596E-005	10	...........
	660	13.22	7.66802E-001	1.47040E-004	0.00000E+000	7.67700E-001	9.81459E-005	10	...........
	664	13.3	7.70732E-001	1.42720E-004	0.00000E+000	7.71700E-001	9.93969E-005	10	...........
	668	13.38	7.74794E-001	1.39148E-004	0.00000E+000	7.75700E-001	9.79791E-005	10	...........
	672	13.46	7.78770E-001	1.35877E-004	0.00000E+000	7.79700E-001	9.96471E-005	10	...........
	676	13.54	7.82827E-001	1.32526E-004	0.00000E+000	7.83700E-001	1.02316E-004	10	...........
	680	13.62	7.86669E-001	1.29670E-004	0.00000E+000	7.87700E-001	1.01399E-004	10	...........
	684	13.7	7.90787E-001	1.26316E-004	0.00000E+000	7.91700E-001	1.01399E-004	10	...........
	688	13.78	7.94666E-001	1.23528E-004	0.00000E+000	7.95700E-001	9.82293E-005	10	...........
	692	13.86	7.98775E-001	1.20908E-004	0.00000E+000	7.99700E-001	9.78123E-005	10	...........
	696	13.94	7.94682E-001	1.06590E-004	0.00000E+000	7.95700E-001	1.02816E-004	10	...........
	700	14.02	7.90805E-001	9.89167E-005	0.00000E+000	7.91700E-001	9.99807E-005	10	...........
	704	14.1	7.86687E-001	9.17638E-005	0.00000E+000	7.87700E-001	9.73119E-005	10	...........
	708	14.18	7.82865E-001	8.53649E-005	0.00000E+000	7.83700E-001	9.41426E-005	10	...........
	712	14.26	7.78756E-001	7.96516E-005	0.00000E+000	7.79700E-001	9.52268E-005	10	...........
	716	14.34	7.74806E-001	7.45889E-005	0.00000E+000	7.75700E-001	9.47264E-005	10	...........
	720	14.42	7.70753E-001	7.02518E-005	0.00000E+000	7.71700E-001	9.49766E-005	10	...........
	724	14.5	7.66827E-001	6.64818E-005	0.00000E+000	7.67700E-001	9.41426E-005	10	...........
	728	14.58	7.62785E-001	6.33107E-005	0.00000E+000	7.63700E-001	9.58940E-005	10	...........
	732	14.66	7.58831E-001	5.91988E-005	0.00000E+000	7.59700E-001	9.83127E-005	10	...........
	736	14.74	7.54773E-001	5.73689E-005	0.00000E+000	7.55700E-001	9.28082E-005	10	...........
	740	14.82	7.50813E-001	5.41244E-005	0.00000E+000	7.51700E-001	9.88131E-005	10	...........
	744	14.9	7.46758E-001	5.15422E-005	0.00000E+000	7.47700E-001	9.23912E-005	10	...........
	748	14.98	7.42809E-001	4.84862E-005	0.00000E+000	7.43700E-001	9.76455E-005	10	...........
	752	15.06	7.38786E-001	4.56303E-005	0.00000E+000	7.39700E-001	9.87297E-005	10	...........
	756	15.14	7.34868E-001	4.38771E-005	0.00000E+000	7.35700E-001	8.33838E-005	10	...........
	760	15.22	7.30752E-001	4.17803E-005	0.00000E+000	7.31700E-001	9.88131E-005	10	...........
	764	15.3	7.26838E-001	3.98286E-005	0.00000E+000	7.27700E-001	9.66446E-005	10	...........
	768	15.38	7.22797E-001	3.74499E-005	0.00000E+000	7.23700E-001	9.88131E-005	10	...........
	772	15.46	7.18832E-001	3.63756E-005	0.00000E+000	7.19700E-001	9.60608E-005	10	...........
	776	15.54	7.14873E-001	3.44506E-005	0.00000E+000	7.15700E-001	9.37256E-005	10	...........
	780	15.62	7.10882E-001	3.27658E-005	0.00000E+000	7.11700E-001	9.37256E-005	10	...........
	784	15.7	7.06818E-001	3.15497E-005	0.00000E+000	7.07700E-001	9.98973E-005	10	...........
	788	15.78	7.02852E-001	3.00801E-005	0.00000E+000	7.03700E-001	1.01982E-004	10	...........
	792	15.86	6.98860E-001	2.87890E-005	0.00000E+000	6.99700E-001	1.03901E-004	10	...........
	796	15.94	6.94886E-001	2.77031E-005	0.00000E+000	6.95700E-001	9.88965E-005	10	...........
	800	16.02	6.90896E-001	2.67789E-005	0.00000E+000	6.91700E-001	1.00481E-004	10	...........
	804	16.1	6.86900E-001	2.53443E-005	0.00000E+000	6.87700E-001	9.54770E-005	10	...........
	808	16.18	6.82809E-001	2.37713E-005	0.00000E+000	6.83700E-001	1.02983E-004	10	...........
	812	16.26	6.78930E-001	2.29556E-005	0.00000E+000	6.79700E-001	9.89799E-005	10	...........
	816	16.34	6.74856E-001	2.17612E-005	0.00000E+000	6.75700E-001	9.92301E-005	10	...........
	820	16.42	6.70897E-001	2.12141E-005	0.00000E+000	6.71700E-001	1.03484E-004	10	...........
	824	16.5	6.66860E-001	2.04501E-005	0.00000E+000	6.67700E-001	1.01148E-004	10	...........
	828	16.58	6.62908E-001	1.92007E-005	0.00000E+000	6.63700E-001	9.73953E-005	10	...........
	832	16.66	6.58879E-001	1.81047E-005	0.00000E+000	6.59700E-001	9.78957E-005	10	...........
	836	16.74	6.54930E-001	1.71856E-005	0.00000E+000	6.55700E-001	1.04318E-004	10	...........
	840	16.82	6.50881E-001	1.64016E-005	0.00000E+000	6.51700E-001	1.04735E-004	10	...........
	844	16.9	6.46912E-001	1.59395E-005	0.00000E+000	6.47700E-001	9.94803E-005	10	...........
	848	16.98	6.42904E-001	1.49920E-005	0.00000E+000	6.43700E-001	9.06397E-005	10	...........
	852	17.06	6.38944E-001	1.45149E-005	0.00000E+000	6.39700E-001	9.23912E-005	10	...........
	856	17.14	6.34919E-001	1.34623E-005	0.00000E+000	6.35700E-001	9.88131E-005	10	...........
	860	17.22	6.30936E-001	1.27584E-005	0.00000E+000	6.31700E-001	1.00648E-004	10	...........
	864	17.3	6.26875E-001	1.27734E-005	0.00000E+000	6.27700E-001	1.01816E-004	10	...........
	868	17.38	6.22928E-001	1.27384E-005	0.00000E+000	6.23700E-001	1.03400E-004	10	...........
	872	17.46	6.18919E-001	1.16674E-005	0.00000E+000	6.19700E-001	1.02066E-004	10	...........
	876	17.54	6.14930E-001	1.10936E-005	0.00000E+000	6.15700E-001	1.01232E-004	10	...........
	880	17.62	6.10972E-001	1.04697E-005	0.00000E+000	6.11700E-001	9.48932E-005	10	...........
	884	17.7	6.06967E-001	9.93927E-006	0.00000E+000	6.07700E-001	1.05152E-004	10	...........
	888	17.78	6.02903E-001	8.96008E-006	0.00000E+000	6.03700E-001	9.86463E-005	10	...........
	892	17.86	5.98960E-001	8.71821E-006	0.00000E+000	5.99700E-001	1.02483E-004	10	...........
	896	17.94	5.94939E-001	7.87747E-006	0.00000E+000	5.95700E-001	1.01232E-004	10	...........
	900	18.02	5.90994E-001	7.53384E-006	0.00000E+000	5.91700E-001	9.44762E-005	10	...........
	904	18.1	5.86979E-001	7.39872E-006	0.00000E+000	5.87700E-001	1.00898E-004	10	...........
	908	18.18	5.82987E-001	7.46211E-006	0.00000E+000	5.83700E-001	1.01148E-004	10	...........
	912	18.26	5.78945E-001	7.74069E-006	0.00000E+000	5.79700E-001	1.04818E-004	10	...........
	916	18.34	5.74967E-001	6.47459E-006	0.00000E+000	5.75700E-001	9.82293E-005	10	...........
	920	18.42	5.70982E-001	6.39452E-006	0.00000E+000	5.71700E-001	9.51434E-005	10	...........
	924	18.5	5.66992E-001	5.58214E-006	0.00000E+000	5.67700E-001	9.83127E-005	10	...........
	928	18.58	5.62974E-001	5.35528E-006	0.00000E+000	5.63700E-001	9.95637E-005	10	...........
	932	18.66	5.59000E-001	4.72473E-006	0.00000E+000	5.59700E-001	9.80625E-005	10	...........
	936	18.74	5.54972E-001	4.40111E-006	0.00000E+000	5.55700E-001	1.00731E-004	10	...........
	940	18.82	5.50983E-001	4.51621E-006	0.00000E+000	5.51700E-001	1.02233E-004	10	...........
	944	18.9	5.46961E-001	4.29102E-006	0.00000E+000	5.47700E-001	1.01899E-004	10	...........
	948	18.98	5.42999E-001	4.41779E-006	0.00000E+000	5.43700E-001	1.03650E-004	10	...........
	952	19.06	5.38977E-001	4.06249E-006	0.00000E+000	5.39700E-001	9.89799E-005	10	...........
	956	19.14	5.35049E-001	4.22096E-006	0.00000E+000	5.35700E-001	9.33920E-005	10	...........
	960	19.22	5.31008E-001	3.88566E-006	0.00000E+000	5.31700E-001	1.03817E-004	10	...........
	964	19.3	5.27034E-001	3.16003E-006	0.00000E+000	5.27700E-001	9.93135E-005	10	...........
	968	19.38	5.22956E-001	2.71464E-006	0.00000E+000	5.23700E-001	9.35588E-005	10	...........
	972	19.46	5.19008E-001	2.88980E-006	0.00000E+000	5.19700E-001	9.42260E-005	10	...........
	976	19.54	5.14996E-001	2.94818E-006	0.00000E+000	5.15700E-001	9.70617E-005	10	...........
	980	19.62	5.11056E-001	2.59621E-006	0.00000E+000	5.11700E-001	1.02483E-004	10	...........
	984	19.7	5.07031E-001	1.81720E-006	0.00000E+000	5.07700E-001	9.83961E-005	10	...........
	988	19.78	5.03042E-001	1.81219E-006	0.00000E+000	5.03700E-001	9.21410E-005	10	...........
	992	19.86	4.98991E-001	1.85723E-006	0.00000E+000	4.99700E-001	9.76455E-005	10	...........
	996	19.94	4.95051E-001	2.28594E-006	0.00000E+000	4.95700E-001	9.78957E-005	10	...........
	1000	20.02	4.91004E-001	1.41018E-006	0.00000E+000	4.91700E-001	9.50600E-005	10	...........
	1004	20.1	4.87039E-001	1.12326E-006	0.00000E+000	4.87700E-001	9.78957E-005	10	...........
	1008	20.18	4.83041E-001	1.01316E-006	0.00000E+000	4.83700E-001	9.60608E-005	10	...........
	1012	20.26	4.79080E-001	1.22388E-007	0.00000E+000	4.79700E-001	1.02399E-004	10	...........
	1016	20.34	4.75159E-001	5.86125E-007	0.00000E+000	4.75700E-001	9.83961E-005	10	...........
	1020	20.42	4.71066E-001	2.55838E-007	0.00000E+000	4.71700E-001	9.82293E-005	10	...........
	1024	20.5	4.67043E-001	-2.42930E-007	0.00000E+000	4.67700E-001	9.75621E-005	10	...........
	1028	20.58	4.63084E-001	-5.16501E-007	0.00000E+000	4.63700E-001	9.72285E-005	10	...........
	1032	20.66	4.59054E-001	-3.78048E-007	0.00000E+000	4.59700E-001	9.50600E-005	10	...........
	1036	20.74	4.55107E-001	1.42405E-007	0.00000E+000	4.55700E-001	9.55604E-005	10	...........
	1040	20.82	4.51044E-001	-2.66284E-007	0.00000E+000	4.51700E-001	9.72285E-005	10	...........
	1044	20.9	4.47064E-001	-8.13427E-007	0.00000E+000	4.47700E-001	9.53936E-005	10	...........
	1048	20.98	4.43069E-001	-9.46876E-007	0.00000E+000	4.43700E-001	9.57272E-005	10	...........
	1052	21.06	4.39109E-001	-1.29718E-006	0.00000E+000	4.39700E-001	9.82293E-005	10	...........
	1056	21.14	4.35130E-001	-8.51793E-007	0.00000E+000	4.35700E-001	9.30584E-005	10	...........
	1060	21.22	4.31133E-001	-2.01781E-006	0.00000E+000	4.31700E-001	9.38924E-005	10	...........
	1064	21.3	4.27091E-001	-2.31307E-006	0.00000E+000	4.27700E-001	9.68115E-005	10	...........
	1068	21.38	4.23012E-001	-2.41649E-006	0.00000E+000	4.23700E-001	9.76455E-005	10	...........
	1072	21.46	4.19079E-001	-2.09454E-006	0.00000E+000	4.19700E-001	9.57272E-005	10	...........
	1076	21.54	4.15129E-001	-1.85767E-006	0.00000E+000	4.15700E-001	9.26414E-005	10	...........
	1080	21.62	4.11089E-001	-2.58163E-006	0.00000E+000	4.11700E-001	9.56438E-005	10	...........
	1084	21.7	4.07159E-001	-2.07286E-006	0.00000E+000	4.07700E-001	9.52268E-005	10	...........
	1088	21.78	4.03126E-001	-3.28224E-006	0.00000E+000	4.03700E-001	9.53936E-005	10	...........
	1092	21.86	3.99134E-001	-3.01868E-006	0.00000E+000	3.99700E-001	9.44762E-005	10	...........
	1096	21.94	3.95121E-001	-2.60832E-006	0.00000E+000	3.95700E-001	8.69701E-005	10	...........
	1100	22.02	3.91141E-001	-2.85687E-006	0.00000E+000	3.91700E-001	9.04729E-005	10	...........
	1104	22.1	3.87128E-001	-3.28725E-006	0.00000E+000	3.87700E-001	9.03895E-005	10	...........
	1108	22.18	3.83176E-001	-3.37065E-006	0.00000E+000	3.83700E-001	9.11402E-005	10	...........
	1112	22.26	3.79225E-001	-3.57917E-006	0.00000E+000	3.79700E-001	9.64779E-005	10	...........
	1116	22.34	3.75209E-001	-3.05371E-006	0.00000E+000	3.75700E-001	8.96389E-005	10	...........
	1120	22.42	3.71132E-001	-3.64422E-006	0.00000E+000	3.71700E-001	9.18074E-005	10	...........
	1124	22.5	3.67163E-001	-3.95950E-006	0.00000E+000	3.67700E-001	9.53936E-005	10	...........
	1128	22.58	3.63136E-001	-3.82105E-006	0.00000E+000	3.63700E-001	9.55604E-005	10	...........
	1132	22.66	3.59168E-001	-4.26143E-006	0.00000E+000	3.59700E-001	9.48932E-005	10	...........
	1136	22.74	3.55234E-001	-4.05291E-006	0.00000E+000	3.55700E-001	9.13903E-005	10	...........
	1140	22.82	3.51184E-001	-4.72350E-006	0.00000E+000	3.51700E-001	9.50600E-005	10	...........
	1144	22.9	3.47245E-001	-5.58091E-006	0.00000E+000	3.47700E-001	9.33086E-005	10	...........
	1148	22.98	3.43163E-001	-5.48750E-006	0.00000E+000	3.43700E-001	9.18074E-005	10	...........
	1152	23.06	3.39181E-001	-5.50418E-006	0.00000E+000	3.39700E-001	9.34754E-005	10	...........
	1156	23.14	3.35191E-001	-6.26818E-006	0.00000E+000	3.35700E-001	9.17240E-005	10	...........
	1160	23.22	3.31207E-001	-6.41330E-006	0.00000E+000	3.31700E-001	9.51434E-005	10	...........
	1164	23.3	3.27214E-001	-6.10136E-006	0.00000E+000	3.27700E-001	9.13903E-005	10	...........
	1168	23.38	3.23304E-001	-5.91787E-006	0.00000E+000	3.23700E-001	9.40592E-005	10	...........
	1172	23.46	3.19171E-001	-6.29153E-006	0.00000E+000	3.19700E-001	9.33086E-005	10	...........
	1176	23.54	3.15187E-001	-7.28906E-006	0.00000E+000	3.15700E-001	9.18908E-005	10	...........
	1180	23.62	3.11204E-001	-7.45588E-006	0.00000E+000	3.11700E-001	9.08065E-005	10	...........
	1184	23.7	3.07256E-001	-8.08976E-006	0.00000E+000	3.07700E-001	9.34754E-005	10	...........
	1188	23.78	3.03241E-001	-8.69529E-006	0.00000E+000	3.03700E-001	9.33920E-005	10	...........
	1192	23.86	2.99254E-001	-8.56518E-006	0.00000E+000	2.99700E-001	9.08065E-005	10	...........
	1196	23.94	2.95212E-001	-9.71618E-006	0.00000E+000	2.95700E-001	8.82211E-005	10	...........
	1200	24.02	2.91223E-001	-1.00598E-005	0.00000E+000	2.91700E-001	9.32252E-005	10	...........
	1204	24.1	2.87232E-001	-9.49599E-006	0.00000E+000	2.87700E-001	9.52268E-005	10	...........
	1208	24.18	2.83305E-001	-1.00298E-005	0.00000E+000	2.83700E-001	9.36422E-005	10	...........
	1212	24.26	2.79292E-001	-9.74287E-006	0.00000E+000	2.79700E-001	9.45596E-005	10	...........
	1216	24.34	2.75379E-001	-1.14026E-005	0.00000E+000	2.75700E-001	9.01393E-005	10	...........
	1220	24.42	2.71288E-001	-1.16328E-005	0.00000E+000	2.71700E-001	9.40592E-005	10	...........
	1224	24.5	2.67241E-001	-1.14510E-005	0.00000E+000	2.67700E-001	9.35588E-005	10	...........
	1228	24.58	2.63259E-001	-1.23885E-005	0.00000E+000	2.63700E-001	9.78123E-005	10	...........
	1232	24.66	2.59363E-001	-1.31909E-005	0.00000E+000	2.59700E-001	8.89717E-005	10	...........
	1236	24.74	2.55278E-001	-1.42485E-005	0.00000E+000	2.55700E-001	9.03061E-005	10	...........
	1240	24.82	2.51423E-001	-1.50642E-005	0.00000E+000	2.51700E-001	9.78957E-005	10	...........
	1244	24.9	2.47294E-001	-1.57398E-005	0.00000E+000	2.47700E-001	9.50600E-005	10	...........
	1248	24.98	2.43264E-001	-1.57398E-005	0.00000E+000	2.43700E-001	9.29750E-005	10	...........
	1252	25.06	2.39296E-001	-1.50225E-005	0.00000E+000	2.39700E-001	8.94721E-005	10	...........
	1256	25.14	2.35318E-001	-1.59383E-005	0.00000E+000	2.35700E-001	9.38924E-005	10	...........
	1260	25.22	2.31277E-001	-1.71560E-005	0.00000E+000	2.31700E-001	9.43094E-005	10	...........
	1264	25.3	2.27431E-001	-1.81635E-005	0.00000E+000	2.27700E-001	8.85547E-005	10	...........
	1268	25.38	2.23312E-001	-1.88691E-005	0.00000E+000	2.23700E-001	9.44762E-005	10	...........
	1272	25.46	2.19551E-001	-1.92945E-005	0.00000E+000	2.19700E-001	8.97223E-005	10	...........
	1276	25.54	2.15290E-001	-2.08475E-005	0.00000E+000	2.15700E-001	9.55604E-005	10	...........
	1280	25.62	2.11332E-001	-2.17133E-005	0.00000E+000	2.11700E-001	9.60608E-005	10	...........
	1284	25.7	2.07311E-001	-2.27709E-005	0.00000E+000	2.07700E-001	9.13070E-005	10	...........
	1288	25.78	2.03456E-001	-2.47743E-005	0.00000E+000	2.03700E-001	9.19742E-005	10	...........
	1292	25.86	1.99335E-001	-2.36466E-005	0.00000E+000	1.99700E-001	9.10568E-005	10	...........
	1296	25.94	1.95480E-001	-2.47743E-005	0.00000E+000	1.95700E-001	9.90633E-005	10	...........
	1300	26.02	1.91299E-001	-2.61972E-005	0.00000E+000	1.91700E-001	8.96389E-005	10	...........
	1304	26.1	1.87379E-001	-2.68795E-005	0.00000E+000	1.87700E-001	9.29750E-005	10	...........
	1308	26.18	1.83348E-001	-2.86577E-005	0.00000E+000	1.83700E-001	1.01065E-004	10	...........
	1312	26.26	1.79518E-001	-2.94951E-005	0.00000E+000	1.79700E-001	9.74787E-005	10	...........
	1316	26.34	1.75364E-001	-3.10631E-005	0.00000E+000	1.75700E-001	9.58106E-005	10	...........
	1320	26.42	1.71476E-001	-3.29648E-005	0.00000E+000	1.71700E-001	9.25580E-005	10	...........
	1324	26.5	1.67299E-001	-3.48330E-005	0.00000E+000	1.67700E-001	9.51434E-005	10	...........
	1328	26.58	1.63397E-001	-3.66580E-005	0.00000E+000	1.63700E-001	9.41426E-005	10	...........
	1332	26.66	1.59356E-001	-3.85079E-005	0.00000E+000	1.59700E-001	9.10568E-005	10	...........
	1336	26.74	1.55502E-001	-4.02111E-005	0.00000E+000	1.55700E-001	9.26414E-005	10	...........
	1340	26.82	1.51366E-001	-4.14605E-005	0.00000E+000	1.51700E-001	9.22244E-005	10	...........
	1344	26.9	1.47513E-001	-4.36757E-005	0.00000E+000	1.47700E-001	9.43928E-005	10	...........
	1348	26.98	1.43360E-001	-4.63331E-005	0.00000E+000	1.43700E-001	9.21410E-005	10	...........
	1352	27.06	1.39417E-001	-4.83999E-005	0.00000E+000	1.39700E-001	8.58025E-005	10	...........
	1356	27.14	1.35343E-001	-5.10655E-005	0.00000E+000	1.35700E-001	9.18908E-005	10	...........
	1360	27.22	1.31506E-001	-5.29371E-005	0.00000E+000	1.31700E-001	9.48932E-005	10	...........
	1364	27.3	1.27379E-001	-5.59064E-005	0.00000E+000	1.27700E-001	9.30584E-005	10	...........
	1368	27.38	1.23561E-001	-5.82918E-005	0.00000E+000	1.23700E-001	8.91385E-005	10	...........
	1372	27.46	1.19381E-001	-6.03136E-005	0.00000E+000	1.19700E-001	9.08065E-005	10	...........
	1376	27.54	1.15378E-001	-6.35914E-005	0.00000E+000	1.15700E-001	9.43094E-005	10	...........
	1380	27.62	1.11353E-001	-6.48525E-005	0.00000E+000	1.11700E-001	9.56438E-005	10	...........
	1384	27.7	1.07487E-001	-6.64322E-005	0.00000E+000	1.07700E-001	9.20576E-005	10	...........
	1388	27.78	1.03372E-001	-6.81687E-005	0.00000E+000	1.03700E-001	9.43928E-005	10	...........
	1392	27.86	9.95496E-002	-7.07093E-005	0.00000E+000	9.97000E-002	9.18908E-005	10	...........
	1396	27.94	9.53805E-002	-7.40956E-005	0.00000E+000	9.57000E-002	9.62276E-005	10	...........
	1400	28.02	9.15330E-002	-7.61373E-005	0.00000E+000	9.17000E-002	8.97223E-005	10	...........
	1404	28.1	8.73808E-002	-7.76203E-005	0.00000E+000	8.77000E-002	9.33920E-005	10	...........
	1408	28.18	8.35114E-002	-7.95520E-005	0.00000E+000	8.37000E-002	9.52268E-005	10	...........
	1412	28.26	7.93911E-002	-8.19040E-005	0.00000E+000	7.97000E-002	9.43928E-005	10	...........
	1416	28.34	7.55554E-002	-8.34220E-005	0.00000E+000	7.57000E-002	9.33086E-005	10	...........
	1420	28.42	7.13773E-002	-8.45797E-005	0.00000E+000	7.17000E-002	9.43928E-005	10	...........
	1424	28.5	6.75557E-002	-8.46831E-005	0.00000E+000	6.77000E-002	9.05564E-005	10	...........
	1428	28.58	6.33953E-002	-8.48666E-005	0.00000E+000	6.37000E-002	9.53102E-005	10	...........
	1432	28.66	5.95122E-002	-8.58691E-005	0.00000E+000	5.97000E-002	9.63944E-005	10	...........
	1436	28.74	5.53970E-002	-8.69384E-005	0.00000E+000	5.57000E-002	9.76455E-005	10	...........
	1440	28.82	5.15625E-002	-8.78058E-005	0.00000E+000	5.17000E-002	9.56438E-005	10	...........
	1444	28.9	4.73931E-002	-8.87216E-005	0.00000E+000	4.77000E-002	9.93969E-005	10	...........
	1448	28.98	4.35525E-002	-8.85748E-005	0.00000E+000	4.37000E-002	9.33086E-005	10	...........
	1452	29.06	3.93473E-002	-8.94206E-005	0.00000E+000	3.97000E-002	9.91467E-005	10	...........
	1456	29.14	3.55142E-002	-8.96474E-005	0.00000E+000	3.57000E-002	9.45596E-005	10	...........
	1460	29.22	3.14116E-002	-8.99544E-005	0.00000E+000	3.17000E-002	9.82293E-005	10	...........
	1464	29.3	2.75766E-002	-8.98443E-005	0.00000E+000	2.77000E-002	1.00982E-004	10	...........
	1468	29.38	2.34300E-002	-8.81728E-005	0.00000E+000	2.37000E-002	1.01732E-004	10	...........
	1472	29.46	1.95785E-002	-8.78259E-005	0.00000E+000	1.97000E-002	9.98139E-005	10	...........
	1476	29.54	1.53919E-002	-8.73271E-005	0.00000E+000	1.57000E-002	1.00398E-004	10	...........
	1480	29.62	1.14713E-002	-8.76757E-005	0.00000E+000	1.17000E-002	9.55604E-005	10	...........
	1484	29.7	7.41701E-003	-8.74021E-005	0.00000E+000	7.70001E-003	9.70617E-005	10	...........
	1488	29.78	3.55610E-003	-8.67699E-005	0.00000E+000	3.70000E-003	9.31418E-005	10	...........
	1492	29.86	-4.80536E-004	-8.70118E-005	0.00000E+000	-2.99990E-004	9.55604E-005	10	...........
	1496	29.94	-4.41876E-003	-8.64663E-005	0.00000E+000	-4.29998E-003	9.95637E-005	10	...........
	1500	30.02	-8.53604E-003	-8.60326E-005	0.00000E+000	-8.29999E-003	1.03567E-004	10	...........
	1504	30.1	-1.24224E-002	-8.53754E-005	0.00000E+000	-1.23000E-002	1.00982E-004	10	...........
	1508	30.18	-1.64456E-002	-8.42694E-005	0.00000E+000	-1.63000E-002	9.53102E-005	10	...........
	1512	30.26	-2.04456E-002	-8.32085E-005	0.00000E+000	-2.03000E-002	9.86463E-005	10	...........
	1516	30.34	-2.45151E-002	-8.22477E-005	0.00000E+000	-2.43000E-002	1.04318E-004	10	...........
	1520	30.42	-2.83971E-002	-8.21059E-005	0.00000E+000	-2.83000E-002	1.02733E-004	10	...........
	1524	30.5	-3.24769E-002	-8.19491E-005	0.00000E+000	-3.23000E-002	9.78123E-005	10	...........
	1528	30.58	-3.63701E-002	-8.17189E-005	0.00000E+000	-3.63000E-002	9.58940E-005	10	...........
	1532	30.66	-4.04544E-002	-8.10917E-005	0.00000E+000	-4.03000E-002	1.02900E-004	10	...........
	1536	30.74	-4.44149E-002	-8.02926E-005	0.00000E+000	-4.43000E-002	1.00731E-004	10	...........
	1540	30.82	-4.84441E-002	-7.97955E-005	0.00000E+000	-4.83000E-002	9.68949E-005	10	...........
	1544	30.9	-5.23925E-002	-7.99073E-005	0.00000E+000	-5.23000E-002	9.30584E-005	10	...........
	1548	30.98	-5.64179E-002	-7.81458E-005	0.00000E+000	-5.63000E-002	9.38090E-005	10	...........
	1552	31.06	-6.04007E-002	-7.76703E-005	0.00000E+000	-6.03000E-002	9.73953E-005	10	...........
	1556	31.14	-6.44493E-002	-7.66445E-005	0.00000E+000	-6.43000E-002	9.59774E-005	10	...........
	1560	31.22	-6.84293E-002	-7.55352E-005	0.00000E+000	-6.83000E-002	9.81459E-005	10	...........
	1564	31.3	-7.24343E-002	-7.47094E-005	0.00000E+000	-7.23000E-002	9.34754E-005	10	...........
	1568	31.38	-7.63649E-002	-7.37619E-005	0.00000E+000	-7.63000E-002	9.34754E-005	10	...........
	1572	31.46	-8.04238E-002	-7.42090E-005	0.00000E+000	-8.03000E-002	9.88965E-005	10	...........
	1576	31.54	-8.43734E-002	-7.34066E-005	0.00000E+000	-8.43000E-002	9.73953E-005	10	...........
	1580	31.62	-8.84146E-002	-7.21989E-005	0.00000E+000	-8.83000E-002	9.48932E-005	10	...........
	1584	31.7	-9.23958E-002	-7.18253E-005	0.00000E+000	-9.23000E-002	9.73119E-005	10	...........
	1588	31.78	-9.63943E-002	-6.97284E-005	0.00000E+000	-9.63000E-002	8.65531E-005	10	...........
	1592	31.86	-1.00375E-001	-6.88443E-005	0.00000E+000	-1.00300E-001	9.31418E-005	10	...........
[...]
	12587	251.76	-3.04886E-001	-2.96363E-006	0.00000E+000	-3.05000E-001	6.08654E-005	10	...........
	12589	251.8	-3.02926E-001	-2.77013E-006	0.00000E+000	-3.03000E-001	6.03650E-005	10	...........
	12591	251.84	-3.00892E-001	-2.97698E-006	0.00000E+000	-3.01000E-001	6.20330E-005	10	...........
	12593	251.88	-2.98861E-001	-2.41816E-006	0.00000E+000	-2.99000E-001	6.01982E-005	10	...........
	12595	251.92	-2.96876E-001	-2.07786E-006	0.00000E+000	-2.97000E-001	6.39512E-005	10	...........
	12597	251.96	-2.94744E-001	-1.18875E-006	0.00000E+000	-2.95000E-001	6.92055E-005	10	...........
	12599	252	-2.92588E-001	-7.65051E-007	0.00000E+000	-2.93000E-001	6.53691E-005	10	...........
	12601	252.04	-2.90817E-001	-2.03783E-006	0.00000E+000	-2.91000E-001	5.93642E-005	10	...........
	12603	252.08	-2.88861E-001	-1.39393E-006	0.00000E+000	-2.89000E-001	6.10322E-005	10	...........
	12605	252.12	-2.86928E-001	-2.28638E-006	0.00000E+000	-2.87000E-001	5.90305E-005	10	...........
	12607	252.16	-2.84903E-001	-2.04783E-006	0.00000E+000	-2.85000E-001	5.57779E-005	10	...........
	12609	252.2	-2.82832E-001	-2.06952E-006	0.00000E+000	-2.83000E-001	5.73625E-005	10	...........
	12611	252.24	-2.80885E-001	-2.17795E-006	0.00000E+000	-2.81000E-001	6.05318E-005	10	...........
	12613	252.28	-2.78930E-001	-1.87435E-006	0.00000E+000	-2.79000E-001	6.72039E-005	10	...........
	12615	252.32	-2.76904E-001	-2.18462E-006	0.00000E+000	-2.77000E-001	5.33592E-005	10	...........
	12617	252.36	-2.74829E-001	-2.27470E-006	0.00000E+000	-2.75000E-001	6.62865E-005	10	...........
	12619	252.4	-2.72724E-001	-1.25381E-006	0.00000E+000	-2.73000E-001	6.43683E-005	10	...........
	12621	252.44	-2.70932E-001	-3.07373E-006	0.00000E+000	-2.71000E-001	6.32840E-005	10	...........
	12623	252.48	-2.68937E-001	-3.21552E-006	0.00000E+000	-2.69000E-001	5.73625E-005	10	...........
	12625	252.52	-2.66905E-001	-2.39314E-006	0.00000E+000	-2.67000E-001	5.33592E-005	10	...........
	12627	252.56	-2.64899E-001	-3.50243E-006	0.00000E+000	-2.65000E-001	5.35260E-005	10	...........
	12629	252.6	-2.63004E-001	-2.74177E-006	0.00000E+000	-2.63000E-001	5.29422E-005	10	...........
	12631	252.64	-2.60883E-001	-2.52659E-006	0.00000E+000	-2.61000E-001	6.11156E-005	10	...........
	12633	252.68	-2.58857E-001	-2.59998E-006	0.00000E+000	-2.59000E-001	6.18662E-005	10	...........
	12635	252.72	-2.56876E-001	-2.53826E-006	0.00000E+000	-2.57000E-001	5.81131E-005	10	...........
	12637	252.76	-2.54957E-001	-2.46987E-006	0.00000E+000	-2.55000E-001	6.32840E-005	10	...........
	12639	252.8	-2.52684E-001	-1.79094E-006	0.00000E+000	-2.53000E-001	7.17076E-005	10	...........
	12641	252.84	-2.50693E-001	-1.08700E-006	0.00000E+000	-2.51000E-001	7.82963E-005	10	...........
	12643	252.88	-2.48944E-001	-2.33308E-006	0.00000E+000	-2.49000E-001	6.10322E-005	10	...........
	12645	252.92	-2.46958E-001	-2.61333E-006	0.00000E+000	-2.47000E-001	5.66953E-005	10	...........
	12647	252.96	-2.44979E-001	-1.94775E-006	0.00000E+000	-2.45000E-001	5.24418E-005	10	...........
	12649	253	-2.42926E-001	-2.54493E-006	0.00000E+000	-2.43000E-001	5.87803E-005	10	...........
	12651	253.04	-2.40978E-001	-2.18629E-006	0.00000E+000	-2.41000E-001	5.71957E-005	10	...........
	12653	253.08	-2.38978E-001	-2.42483E-006	0.00000E+000	-2.39000E-001	6.19496E-005	10	...........
	12655	253.12	-2.36946E-001	-2.54160E-006	0.00000E+000	-2.37000E-001	5.93642E-005	10	...........
	12657	253.16	-2.34821E-001	-2.39147E-006	0.00000E+000	-2.35000E-001	6.14492E-005	10	...........
	12659	253.2	-2.32867E-001	-2.34976E-006	0.00000E+000	-2.33000E-001	5.23584E-005	10	...........
	12661	253.24	-2.30721E-001	-9.65226E-007	0.00000E+000	-2.31000E-001	6.82881E-005	10	...........
	12663	253.28	-2.28852E-001	-1.89604E-006	0.00000E+000	-2.29000E-001	6.31172E-005	10	...........
	12665	253.32	-2.26901E-001	-1.75091E-006	0.00000E+000	-2.27000E-001	5.81131E-005	10	...........
	12667	253.36	-2.24946E-001	-2.77680E-006	0.00000E+000	-2.25000E-001	6.42848E-005	10	...........
	12669	253.4	-2.22980E-001	-1.62246E-006	0.00000E+000	-2.23000E-001	5.70289E-005	10	...........
	12671	253.44	-2.20973E-001	-1.93440E-006	0.00000E+000	-2.21000E-001	5.37762E-005	10	...........
	12673	253.48	-2.18996E-001	-1.36391E-006	0.00000E+000	-2.19000E-001	5.23584E-005	10	...........
	12675	253.52	-2.16990E-001	-1.80262E-006	0.00000E+000	-2.17000E-001	5.63617E-005	10	...........
	12677	253.56	-2.15037E-001	-1.86101E-006	0.00000E+000	-2.15000E-001	6.02816E-005	10	...........
	12679	253.6	-2.12925E-001	-1.50236E-006	0.00000E+000	-2.13000E-001	5.09406E-005	10	...........
	12681	253.64	-2.10780E-001	-7.60047E-007	0.00000E+000	-2.11000E-001	5.58613E-005	10	...........
	12683	253.68	-2.08712E-001	-1.95776E-006	0.00000E+000	-2.09000E-001	6.51189E-005	10	...........
	12685	253.72	-2.06964E-001	-3.52412E-006	0.00000E+000	-2.07000E-001	6.16994E-005	10	...........
	12687	253.76	-2.04966E-001	-2.26135E-006	0.00000E+000	-2.05000E-001	5.36928E-005	10	...........
	12689	253.8	-2.02914E-001	-3.51745E-006	0.00000E+000	-2.03000E-001	5.36928E-005	10	...........
	12691	253.84	-2.00981E-001	-2.02281E-006	0.00000E+000	-2.01000E-001	5.79463E-005	10	...........
	12693	253.88	-1.99026E-001	-3.15880E-006	0.00000E+000	-1.99000E-001	5.89471E-005	10	...........
	12695	253.92	-1.97050E-001	-2.69340E-006	0.00000E+000	-1.97000E-001	5.17746E-005	10	...........
	12697	253.96	-1.94978E-001	-2.89691E-006	0.00000E+000	-1.95000E-001	5.73625E-005	10	...........
	12699	254	-1.92994E-001	-2.53993E-006	0.00000E+000	-1.93000E-001	5.75293E-005	10	...........
	12701	254.04	-1.91060E-001	-2.58664E-006	0.00000E+000	-1.91000E-001	5.29422E-005	10	...........
	12703	254.08	-1.88757E-001	-1.58577E-006	0.00000E+000	-1.89000E-001	6.40346E-005	10	...........
	12705	254.12	-1.86766E-001	-2.07452E-006	0.00000E+000	-1.87000E-001	6.42848E-005	10	...........
	12707	254.16	-1.84957E-001	-3.39234E-006	0.00000E+000	-1.85000E-001	5.43601E-005	10	...........
	12709	254.2	-1.82996E-001	-2.28971E-006	0.00000E+000	-1.83000E-001	5.69455E-005	10	...........
	12711	254.24	-1.80997E-001	-3.17548E-006	0.00000E+000	-1.81000E-001	5.26086E-005	10	...........
	12713	254.28	-1.78932E-001	-2.60999E-006	0.00000E+000	-1.79000E-001	5.23584E-005	10	...........
	12715	254.32	-1.76990E-001	-2.83852E-006	0.00000E+000	-1.77000E-001	5.26086E-005	10	...........
	12717	254.36	-1.75022E-001	-2.83352E-006	0.00000E+000	-1.75000E-001	5.71957E-005	10	...........
	12719	254.4	-1.73034E-001	-2.62500E-006	0.00000E+000	-1.73000E-001	5.31090E-005	10	...........
	12721	254.44	-1.70948E-001	-2.32141E-006	0.00000E+000	-1.71000E-001	4.73543E-005	10	...........
	12723	254.48	-1.68957E-001	-2.24801E-006	0.00000E+000	-1.69000E-001	5.39431E-005	10	...........
	12725	254.52	-1.66864E-001	-1.30052E-006	0.00000E+000	-1.67000E-001	6.11156E-005	10	...........
	12727	254.56	-1.65066E-001	-3.60085E-006	0.00000E+000	-1.65000E-001	5.50273E-005	10	...........
	12729	254.6	-1.62949E-001	-2.98198E-006	0.00000E+000	-1.63000E-001	5.42767E-005	10	...........
	12731	254.64	-1.61032E-001	-1.37725E-006	0.00000E+000	-1.61000E-001	5.98646E-005	10	...........
	12733	254.68	-1.59069E-001	-3.01201E-006	0.00000E+000	-1.59000E-001	5.94476E-005	10	...........
	12735	254.72	-1.57072E-001	-1.72922E-006	0.00000E+000	-1.57000E-001	5.37762E-005	10	...........
	12737	254.76	-1.54994E-001	-1.98278E-006	0.00000E+000	-1.55000E-001	5.04402E-005	10	...........
	12739	254.8	-1.53020E-001	-1.77426E-006	0.00000E+000	-1.53000E-001	5.96144E-005	10	...........
	12741	254.84	-1.51041E-001	-2.12290E-006	0.00000E+000	-1.51000E-001	4.81049E-005	10	...........
	12743	254.88	-1.49026E-001	-1.73256E-006	0.00000E+000	-1.49000E-001	5.45269E-005	10	...........
	12745	254.92	-1.46842E-001	-7.30021E-007	0.00000E+000	-1.47000E-001	5.84467E-005	10	...........
	12747	254.96	-1.44845E-001	-7.36693E-007	0.00000E+000	-1.45000E-001	6.28670E-005	10	...........
	12749	255	-1.42996E-001	-5.02710E-006	0.00000E+000	-1.43000E-001	5.45269E-005	10	...........
	12751	255.04	-1.41055E-001	-2.32141E-006	0.00000E+000	-1.41000E-001	5.85301E-005	10	...........
	12753	255.08	-1.38990E-001	-2.04563E-007	0.00000E+000	-1.39000E-001	5.34426E-005	10	...........
	12755	255.12	-1.37001E-001	-2.03449E-006	0.00000E+000	-1.37000E-001	6.22832E-005	10	...........
	12757	255.16	-1.35072E-001	-1.10702E-006	0.00000E+000	-1.35000E-001	6.31172E-005	10	...........
	12759	255.2	-1.33015E-001	-1.86267E-006	0.00000E+000	-1.33000E-001	6.05318E-005	10	...........
	12761	255.24	-1.30919E-001	-1.45899E-006	0.00000E+000	-1.31000E-001	5.80297E-005	10	...........
	12763	255.28	-1.28972E-001	-1.30219E-006	0.00000E+000	-1.29000E-001	6.16160E-005	10	...........
	12765	255.32	-1.27064E-001	-1.51737E-006	0.00000E+000	-1.27000E-001	6.15326E-005	10	...........
	12767	255.36	-1.24842E-001	-3.89724E-007	0.00000E+000	-1.25000E-001	8.20494E-005	10	...........
	12769	255.4	-1.22931E-001	-1.30886E-006	0.00000E+000	-1.23000E-001	6.18662E-005	10	...........
	12771	255.44	-1.21061E-001	-2.08453E-006	0.00000E+000	-1.21000E-001	5.86135E-005	10	...........
	12773	255.48	-1.19072E-001	-1.96610E-006	0.00000E+000	-1.19000E-001	5.50273E-005	10	...........
	12775	255.52	-1.17098E-001	-3.98065E-007	0.00000E+000	-1.17000E-001	6.11990E-005	10	...........
	12777	255.56	-1.15068E-001	-1.38726E-006	0.00000E+000	-1.15000E-001	5.43601E-005	10	...........
	12779	255.6	-1.13112E-001	-1.46900E-006	0.00000E+000	-1.13000E-001	5.61115E-005	10	...........
	12781	255.64	-1.11071E-001	-1.44564E-006	0.00000E+000	-1.11000E-001	5.57779E-005	10	...........
	12783	255.68	-1.09086E-001	-1.69586E-006	0.00000E+000	-1.09000E-001	5.91140E-005	10	...........
	12785	255.72	-1.06931E-001	-1.51404E-006	0.00000E+000	-1.07000E-001	5.21916E-005	10	...........
	12787	255.76	-1.04932E-001	-1.06698E-006	0.00000E+000	-1.05000E-001	6.31172E-005	10	...........
	12789	255.8	-1.02861E-001	-5.18170E-007	0.00000E+000	-1.03000E-001	6.32840E-005	10	...........
	12791	255.84	-1.01106E-001	-2.17962E-006	0.00000E+000	-1.01000E-001	6.33674E-005	10	...........
	12793	255.88	-9.90461E-002	-2.01280E-006	0.00000E+000	-9.90000E-002	5.89471E-005	10	...........
	12795	255.92	-9.70791E-002	-1.86101E-006	0.00000E+000	-9.70000E-002	6.26168E-005	10	...........
	12797	255.96	-9.51142E-002	-9.53549E-007	0.00000E+000	-9.50000E-002	5.93642E-005	10	...........
	12799	256	-9.31265E-002	-1.60078E-006	0.00000E+000	-9.30000E-002	5.67787E-005	10	...........
	12801	256.04	-9.11369E-002	-1.82597E-006	0.00000E+000	-9.10000E-002	5.96144E-005	10	...........
	12803	256.08	-8.91229E-002	-1.55407E-006	0.00000E+000	-8.90000E-002	5.63617E-005	10	...........
	12805	256.12	-8.70743E-002	-9.26859E-007	0.00000E+000	-8.70000E-002	5.84467E-005	10	...........
	12807	256.16	-8.50684E-002	-7.33357E-007	0.00000E+000	-8.50000E-002	5.94476E-005	10	...........
	12809	256.2	-8.28182E-002	8.73575E-008	0.00000E+000	-8.30000E-002	6.34508E-005	10	...........
	12811	256.24	-8.08874E-002	-5.77688E-008	0.00000E+000	-8.10000E-002	6.72039E-005	10	...........
	12813	256.28	-7.90703E-002	-1.32554E-006	0.00000E+000	-7.90000E-002	5.52775E-005	10	...........
	12815	256.32	-7.70966E-002	-8.60134E-007	0.00000E+000	-7.70000E-002	5.50273E-005	10	...........
	12817	256.36	-7.49995E-002	-1.27216E-006	0.00000E+000	-7.50000E-002	5.11908E-005	10	...........
	12819	256.4	-7.30830E-002	-7.01663E-007	0.00000E+000	-7.30000E-002	6.05318E-005	10	...........
	12821	256.44	-7.11172E-002	-9.45208E-007	0.00000E+000	-7.10000E-002	5.71123E-005	10	...........
	12823	256.48	-6.91586E-002	-1.22212E-006	0.00000E+000	-6.90000E-002	5.93642E-005	10	...........
	12825	256.52	-6.70970E-002	-7.06667E-007	0.00000E+000	-6.70000E-002	5.71957E-005	10	...........
	12827	256.56	-6.51023E-002	-1.94021E-008	0.00000E+000	-6.50000E-002	6.17828E-005	10	...........
	12829	256.6	-6.31226E-002	-2.81297E-007	0.00000E+000	-6.30000E-002	5.78629E-005	10	...........
	12831	256.64	-6.09267E-002	1.18832E-006	0.00000E+000	-6.10000E-002	5.86969E-005	10	...........
	12833	256.68	-5.90962E-002	-1.06198E-006	0.00000E+000	-5.90000E-002	6.02816E-005	10	...........
	12835	256.72	-5.71006E-002	-1.36891E-006	0.00000E+000	-5.70000E-002	6.21998E-005	10	...........
	12837	256.76	-5.51026E-002	6.51182E-007	0.00000E+000	-5.50000E-002	5.88637E-005	10	...........
	12839	256.8	-5.31207E-002	-1.05197E-006	0.00000E+000	-5.30000E-002	5.60281E-005	10	...........
	12841	256.84	-5.10650E-002	1.60034E-006	0.00000E+000	-5.10000E-002	6.08654E-005	10	...........
	12843	256.88	-4.90967E-002	-3.41349E-007	0.00000E+000	-4.90000E-002	6.42014E-005	10	...........
	12845	256.92	-4.71789E-002	-7.40029E-007	0.00000E+000	-4.70000E-002	6.57027E-005	10	...........
	12847	256.96	-4.51375E-002	-4.76467E-007	0.00000E+000	-4.50000E-002	5.94476E-005	10	...........
	12849	257	-4.30454E-002	2.44161E-007	0.00000E+000	-4.30000E-002	5.42767E-005	10	...........
	12851	257.04	-4.09423E-002	1.70543E-006	0.00000E+000	-4.10000E-002	6.39512E-005	10	...........
	12853	257.08	-3.89763E-002	1.40517E-006	0.00000E+000	-3.90000E-002	6.57861E-005	10	...........
	12855	257.12	-3.71649E-002	-1.08533E-006	0.00000E+000	-3.70000E-002	5.39431E-005	10	...........
	12857	257.16	-3.50376E-002	-7.21680E-007	0.00000E+000	-3.50000E-002	5.09406E-005	10	...........
	12859	257.2	-3.31368E-002	1.55750E-007	0.00000E+000	-3.30000E-002	6.74541E-005	10	...........
	12861	257.24	-3.11427E-002	-4.91480E-007	0.00000E+000	-3.10000E-002	5.76127E-005	10	...........
	12863	257.28	-2.91309E-002	2.99209E-007	0.00000E+000	-2.90000E-002	6.92055E-005	10	...........
	12865	257.32	-2.70770E-002	-1.97891E-007	0.00000E+000	-2.70000E-002	6.73707E-005	10	...........
	12867	257.36	-2.50983E-002	-1.21157E-007	0.00000E+000	-2.50000E-002	7.07068E-005	10	...........
	12869	257.4	-2.31080E-002	2.60842E-007	0.00000E+000	-2.30000E-002	5.55277E-005	10	...........
	12871	257.44	-2.10917E-002	4.04300E-007	0.00000E+000	-2.10000E-002	6.77877E-005	10	...........
	12873	257.48	-1.89391E-002	1.35012E-006	0.00000E+000	-1.90000E-002	7.62947E-005	10	...........
	12875	257.52	-1.71063E-002	1.12379E-007	0.00000E+000	-1.70000E-002	6.51189E-005	10	...........
	12877	257.56	-1.51471E-002	-2.17908E-007	0.00000E+000	-1.50000E-002	6.26168E-005	10	...........
	12879	257.6	-1.31812E-002	-5.04825E-007	0.00000E+000	-1.30000E-002	6.26168E-005	10	...........
	12881	257.64	-1.11423E-002	1.09490E-006	0.00000E+000	-1.10000E-002	5.52775E-005	10	...........
	12883	257.68	-9.11351E-003	3.55925E-007	0.00000E+000	-8.99999E-003	6.20330E-005	10	...........
	12885	257.72	-7.15008E-003	6.87880E-007	0.00000E+000	-6.99998E-003	6.09488E-005	10	...........
	12887	257.76	-5.15644E-003	-5.51532E-007	0.00000E+000	-5.00000E-003	6.06152E-005	10	...........
	12889	257.8	-3.04263E-003	-5.54868E-007	0.00000E+000	-2.99999E-003	5.15244E-005	10	...........
	12891	257.84	-1.09354E-003	4.39864E-008	0.00000E+000	-9.99987E-004	5.94476E-005	10	...........
	12893	257.88	9.18525E-004	1.48357E-006	0.00000E+000	1.00002E-003	6.96225E-005	10	...........
	12895	257.92	2.97321E-003	1.37681E-006	0.00000E+000	3.00001E-003	7.12072E-005	10	...........
	12897	257.96	4.76434E-003	-3.54694E-007	0.00000E+000	5.00001E-003	5.45269E-005	10	...........
	12899	258	6.80342E-003	-1.32387E-006	0.00000E+000	7.00001E-003	6.71205E-005	10	...........
	12901	258.04	8.77020E-003	-3.76380E-007	0.00000E+000	9.00000E-003	5.83633E-005	10	...........
	12903	258.08	1.07577E-002	4.21929E-006	0.00000E+000	1.10000E-002	5.26086E-005	10	...........
	12905	258.12	1.27414E-002	-1.62860E-007	0.00000E+000	1.30000E-002	6.01982E-005	10	...........
	12907	258.16	1.48573E-002	3.70938E-007	0.00000E+000	1.50000E-002	5.66119E-005	10	...........
	12909	258.2	1.68293E-002	3.67602E-007	0.00000E+000	1.70000E-002	6.06986E-005	10	...........
	12911	258.24	1.87919E-002	9.36430E-007	0.00000E+000	1.90000E-002	6.16160E-005	10	...........
	12913	258.28	2.09693E-002	1.11158E-006	0.00000E+000	2.10000E-002	5.40265E-005	10	...........
	12915	258.32	2.30141E-002	2.15082E-006	0.00000E+000	2.30000E-002	6.83715E-005	10	...........
	12917	258.36	2.49229E-002	1.04819E-006	0.00000E+000	2.50000E-002	6.57027E-005	10	...........
	12919	258.4	2.67251E-002	-1.27295E-008	0.00000E+000	2.70000E-002	5.95310E-005	10	...........
	12921	258.44	2.88155E-002	-1.16540E-006	0.00000E+000	2.90000E-002	5.63617E-005	10	...........
	12923	258.48	3.08210E-002	3.73140E-008	0.00000E+000	3.10000E-002	6.14492E-005	10	...........
	12925	258.52	3.27760E-002	2.61122E-006	0.00000E+000	3.30000E-002	5.91974E-005	10	...........
	12927	258.56	3.47384E-002	3.37575E-007	0.00000E+000	3.50000E-002	6.20330E-005	10	...........
	12929	258.6	3.67317E-002	4.74361E-007	0.00000E+000	3.70000E-002	6.12824E-005	10	...........
	12931	258.64	3.88265E-002	5.67776E-007	0.00000E+000	3.90000E-002	6.23666E-005	10	...........
	12933	258.68	4.08293E-002	1.39016E-006	0.00000E+000	4.10000E-002	6.16160E-005	10	...........
	12935	258.72	4.28481E-002	1.86891E-006	0.00000E+000	4.30000E-002	7.67951E-005	10	...........
	12937	258.76	4.50657E-002	2.42940E-006	0.00000E+000	4.50000E-002	6.86217E-005	10	...........
	12939	258.8	4.68704E-002	1.14047E-007	0.00000E+000	4.70000E-002	5.92808E-005	10	...........
	12941	258.84	4.87916E-002	6.96221E-007	0.00000E+000	4.90000E-002	5.77795E-005	10	...........
	12943	258.88	5.07557E-002	-8.44587E-008	0.00000E+000	5.10000E-002	6.41180E-005	10	...........
	12945	258.92	5.28252E-002	4.23184E-008	0.00000E+000	5.30000E-002	5.66119E-005	10	...........
	12947	258.96	5.48078E-002	1.55864E-006	0.00000E+000	5.50000E-002	5.88637E-005	10	...........
	12949	259	5.67677E-002	9.18081E-007	0.00000E+000	5.70000E-002	6.30338E-005	10	...........
	12951	259.04	5.87025E-002	5.89461E-007	0.00000E+000	5.90000E-002	6.56193E-005	10	...........
	12953	259.08	6.07873E-002	1.42018E-006	0.00000E+000	6.10000E-002	6.16160E-005	10	...........
	12955	259.12	6.28012E-002	1.39183E-006	0.00000E+000	6.30000E-002	5.75293E-005	10	...........
	12957	259.16	6.48806E-002	2.57953E-006	0.00000E+000	6.50000E-002	7.05400E-005	10	...........
	12959	259.2	6.69169E-002	2.68795E-006	0.00000E+000	6.70000E-002	7.05400E-005	10	...........
	12961	259.24	6.88067E-002	3.64265E-007	0.00000E+000	6.90000E-002	5.66119E-005	10	...........
	12963	259.28	7.08306E-002	7.49601E-007	0.00000E+000	7.10000E-002	6.11156E-005	10	...........
	12965	259.32	7.27675E-002	1.01316E-006	0.00000E+000	7.30000E-002	6.64533E-005	10	...........
	12967	259.36	7.47345E-002	6.54518E-007	0.00000E+000	7.50000E-002	6.05318E-005	10	...........
	12969	259.4	7.67709E-002	3.90902E-006	0.00000E+000	7.70000E-002	5.96144E-005	10	...........
	12971	259.44	7.88158E-002	1.01817E-006	0.00000E+000	7.90000E-002	6.68703E-005	10	...........
	12973	259.48	8.07607E-002	1.03318E-006	0.00000E+000	8.10000E-002	5.77795E-005	10	...........
	12975	259.52	8.27496E-002	1.93730E-006	0.00000E+000	8.30000E-002	5.87803E-005	10	...........
	12977	259.56	8.47762E-002	2.16583E-006	0.00000E+000	8.50000E-002	5.63617E-005	10	...........
	12979	259.6	8.69329E-002	2.78971E-006	0.00000E+000	8.70000E-002	6.85383E-005	10	...........
	12981	259.64	8.87585E-002	1.29508E-006	0.00000E+000	8.90000E-002	6.06152E-005	10	...........
	12983	259.68	9.06665E-002	6.51182E-007	0.00000E+000	9.10000E-002	5.65285E-005	10	...........
	12985	259.72	9.27290E-002	5.06055E-007	0.00000E+000	9.30000E-002	5.59447E-005	10	...........
	12987	259.76	9.47615E-002	7.24579E-007	0.00000E+000	9.50000E-002	6.33674E-005	10	...........
	12989	259.8	9.67221E-002	1.00983E-006	0.00000E+000	9.70000E-002	5.94476E-005	10	...........
	12991	259.84	9.87099E-002	2.90815E-006	0.00000E+000	9.90000E-002	6.25334E-005	10	...........
	12993	259.88	1.00771E-001	8.89723E-007	0.00000E+000	1.01000E-001	5.87803E-005	10	...........
	12995	259.92	1.02724E-001	1.50025E-006	0.00000E+000	1.03000E-001	5.91140E-005	10	...........
	12997	259.96	1.04750E-001	1.96066E-006	0.00000E+000	1.05000E-001	5.95310E-005	10	...........
	12999	260	1.06877E-001	3.13668E-006	0.00000E+000	1.07000E-001	7.62947E-005	10	...........
	13000	260.02	1.07910E-001	3.12000E-006	0.00000E+000	1.08000E-001	6.83715E-005	10	...........