File: 20191216/Matning 1 skit/CVTESTKRISTALL5BOX6_2.DTA
EXPLAIN
TAG	CV
TITLE	LABEL	CV	Test &Identifier
DATE	LABEL	12/16/2019	Date
TIME	LABEL	10:43:08	Time
NOTES	NOTES	1	&Notes...

PSTAT	PSTAT	REF600-16093	Potentiostat
VINIT	POTEN	0.00000E+000	T	Initial &E (V)
VLIMIT1	POTEN	8.00000E-001	F	Scan Limit &1 (V)
VLIMIT2	POTEN	-5.00000E-001	F	Scan Limit &2 (V)
VFINAL	POTEN	0.00000E+000	T	Final &E (V)
SCANRATE	QUANT	4.99999E+001	&Scan Rate (mV/s)
STEPSIZE	QUANT	1.00000E+000	St&ep Size (mV)
CYCLES	IQUANT	5	C&ycles (#)
IMODE	SELECTOR	1	I/E Range &Mode
IRANGE	QUANT	1.50000E+001	&Max Current (mA)
AREA	QUANT	1.00000E+000	Electrode &Area (cm^2)
ELECTRODETYPE	SELECTOR	0	Electrode Type
STRIPPING	TOGGLE	F	Used for Stripping
POLARITY	TOGGLE	F	Signal Polarity
CONDIT	TWOPARAM	F	1.50000E+001	0.00000E+000	Conditionin&g	Time(s)	E(V)
DELAY	TWOPARAM	T	5.00000E+000	0.00000E+000	Init. De&lay	Time(s)	Stab.(mV/s)
EQDELAY	QUANT	3.00000E+000	Equil. &Time (s)
IRCOMP	SELECTOR	0	IRCom&p
PFCOR	QUANT	0.00000E+000	PF Corr. (ohm)
SAMPLINGMODE	SELECTOR	2	Sampling &Mode
OCVCURVE	TABLE	20
	Pt	T	Vf	Vm	Ach	Over
	#	s	V vs. Ref.	V	V	bits
	0	0.25	2.13197E-001	2.13197E-001	8.63935E-005	...........
	1	0.5	2.13398E-001	2.23756E-001	8.26435E-005	...........
	2	0.75	2.14165E-001	2.09042E-001	8.18519E-005	...........
	3	1	2.15271E-001	2.21499E-001	8.41019E-005	...........
	4	1.25	2.16333E-001	2.28600E-001	8.21019E-005	...........
	5	1.5	2.17732E-001	2.11657E-001	8.05186E-005	...........
	6	1.75	2.18864E-001	2.00571E-001	7.58103E-005	...........
	7	2	2.17466E-001	2.01152E-001	8.38935E-005	...........
	8	2.25	2.13475E-001	2.31346E-001	8.28102E-005	...........
	9	2.5	2.10871E-001	2.24452E-001	8.53102E-005	...........
	10	2.75	2.12736E-001	2.17540E-001	8.32685E-005	...........
	11	3	2.17011E-001	2.18929E-001	8.40185E-005	...........
	12	3.25	2.19824E-001	2.15991E-001	8.27269E-005	...........
	13	3.5	2.20336E-001	2.31165E-001	7.56437E-005	...........
	14	3.75	2.20383E-001	2.18548E-001	8.29352E-005	...........
	15	4	2.21174E-001	2.23140E-001	8.13519E-005	...........
	16	4.25	2.22135E-001	2.23737E-001	8.13102E-005	...........
	17	4.5	2.22363E-001	2.08253E-001	8.08102E-005	...........
	18	4.75	2.21257E-001	2.14344E-001	7.47270E-005	...........
	19	5	2.18783E-001	2.15220E-001	7.96436E-005	...........
EOC	QUANT	0.218783	Open Circuit (V)
PSTATMODEL	IQUANT	4	Pstat Model
PSTATSECTION	LABEL	REF600-16093	Pstat Section
PSTATSERIALNO	LABEL	16093	Pstat Serial Number
CTRLMODE	IQUANT	1	Control Mode
IESTAB	IQUANT	2	I/E Stability
CASPEED	IQUANT	2	Control Amp Speed
CONVENTION	IQUANT	1	Current Convention
ICHRANGE	IQUANT	2	Ich Range
ICHRANGEMODE	TOGGLE	F	Ich Auto Range
ICHOFFSETENABLE	TOGGLE	F	Ich Offset Enable
ICHOFFSET	QUANT	0	Ich Offset (V)
ICHFILTER	IQUANT	2	Ich Filter
VCHRANGE	IQUANT	2	Vch Range
VCHRANGEMODE	TOGGLE	F	Vch Auto Range
VCHOFFSETENABLE	TOGGLE	F	Vch Offset Enable
VCHOFFSET	QUANT	0	Vch Offset (V)
VCHFILTER	IQUANT	2	Vch Filter
ACHRANGE	IQUANT	2	Ach Range
ACHOFFSETENABLE	TOGGLE	F	Ach Offset Enable
ACHOFFSET	QUANT	0	Ach Offset (V)
ACHFILTER	IQUANT	1	Ach Filter
IERANGELOWERLIMIT	IQUANT	1	I/E Range Lower Limit
IERANGEMODE	TOGGLE	F	I/E AutoRange
IERANGE	IQUANT	10	I/E Range
POSFEEDENABLE	TOGGLE	F	Positive Feedback IR Comp
POSFEEDRESISTANCE	QUANT	0	Positive Feedback Resistance (ohm)
ACHSELECT	IQUANT	0	Ach Select
CABLEID	IQUANT	14	Cable ID
DCCALDATE	LABEL	12/10/2019	DC Calibration Date
ACCALDATE	LABEL	12/10/2019	AC Calibration Date
THERMOSELECT	IQUANT	1	Thermo Select
FRAMEWORKVERSION	QUANT	6.12	Framework Version
INSTRUMENTVERSION	LABEL	3.11	Instrument Version
CURVE1	TABLE
	Pt	T	Vf	Im	Vu	Sig	Ach	IERange	Over
	#	s	V vs. Ref.	A	V	V	V	#	bits
	0	0.02	2.18210E-001	4.87653E-006	0.00000E+000	2.18800E-001	7.25416E-005	10	...........
	4	0.1	2.22489E-001	4.89821E-006	0.00000E+000	2.22800E-001	7.57943E-005	10	...........
	8	0.18	2.26263E-001	4.19760E-006	0.00000E+000	2.26800E-001	8.75539E-005	10	...........
	12	0.26	2.30248E-001	4.57293E-006	0.00000E+000	2.30800E-001	7.58777E-005	10	...........
	16	0.34	2.34234E-001	4.59128E-006	0.00000E+000	2.34800E-001	8.33004E-005	10	...........
	20	0.42	2.38251E-001	4.68636E-006	0.00000E+000	2.38800E-001	7.05400E-005	10	...........
	24	0.5	2.42387E-001	5.09171E-006	0.00000E+000	2.42800E-001	7.50437E-005	10	...........
	28	0.58	2.46191E-001	3.98408E-006	0.00000E+000	2.46800E-001	8.53020E-005	10	...........
	32	0.66	2.50187E-001	3.89901E-006	0.00000E+000	2.50800E-001	7.88801E-005	10	...........
	36	0.74	2.54235E-001	4.73140E-006	0.00000E+000	2.54800E-001	8.10486E-005	10	...........
	40	0.82	2.58250E-001	4.60296E-006	0.00000E+000	2.58800E-001	9.01393E-005	10	...........
	44	0.9	2.62341E-001	4.78978E-006	0.00000E+000	2.62800E-001	7.47100E-005	10	...........
	48	0.98	2.66294E-001	3.84062E-006	0.00000E+000	2.66800E-001	9.21410E-005	10	...........
	52	1.06	2.70278E-001	3.87065E-006	0.00000E+000	2.70800E-001	9.15572E-005	10	...........
	56	1.14	2.74199E-001	4.59295E-006	0.00000E+000	2.74800E-001	8.43012E-005	10	...........
	60	1.22	2.78197E-001	4.47785E-006	0.00000E+000	2.78800E-001	8.59693E-005	10	...........
	64	1.3	2.82224E-001	4.63131E-006	0.00000E+000	2.82800E-001	7.37926E-005	10	...........
	68	1.38	2.86381E-001	5.29189E-006	0.00000E+000	2.86800E-001	7.26250E-005	10	...........
	72	1.46	2.90188E-001	4.28434E-006	0.00000E+000	2.90800E-001	8.57191E-005	10	...........
	76	1.54	2.94112E-001	4.43448E-006	0.00000E+000	2.94800E-001	8.90551E-005	10	...........
	80	1.62	2.98215E-001	4.34606E-006	0.00000E+000	2.98800E-001	8.52186E-005	10	...........
	84	1.7	3.02259E-001	4.44115E-006	0.00000E+000	3.02800E-001	7.79627E-005	10	...........
	88	1.78	3.06406E-001	4.46117E-006	0.00000E+000	3.06800E-001	6.94557E-005	10	...........
	92	1.86	3.10117E-001	3.62544E-006	0.00000E+000	3.10800E-001	8.66365E-005	10	...........
	96	1.94	3.14164E-001	3.74221E-006	0.00000E+000	3.14800E-001	8.48016E-005	10	...........
	100	2.02	3.18094E-001	4.30603E-006	0.00000E+000	3.18800E-001	8.45514E-005	10	...........
	104	2.1	3.22166E-001	4.58794E-006	0.00000E+000	3.22800E-001	8.94721E-005	10	...........
	108	2.18	3.26280E-001	4.76476E-006	0.00000E+000	3.26800E-001	7.37926E-005	10	...........
	112	2.26	3.30177E-001	4.16924E-006	0.00000E+000	3.30800E-001	8.54688E-005	10	...........
	116	2.34	3.34093E-001	4.44115E-006	0.00000E+000	3.34800E-001	8.17992E-005	10	...........
	120	2.42	3.38163E-001	4.52122E-006	0.00000E+000	3.38800E-001	7.90469E-005	10	...........
	124	2.5	3.42140E-001	4.18759E-006	0.00000E+000	3.42800E-001	8.43012E-005	10	...........
	128	2.58	3.46238E-001	4.65133E-006	0.00000E+000	3.46800E-001	7.82129E-005	10	...........
	132	2.66	3.50283E-001	5.00831E-006	0.00000E+000	3.50800E-001	7.04566E-005	10	...........
	136	2.74	3.54144E-001	4.12254E-006	0.00000E+000	3.54800E-001	8.35506E-005	10	...........
	140	2.82	3.58116E-001	3.87732E-006	0.00000E+000	3.58800E-001	8.68867E-005	10	...........
	144	2.9	3.62138E-001	4.20928E-006	0.00000E+000	3.62800E-001	9.19742E-005	10	...........
	148	2.98	3.66123E-001	4.55958E-006	0.00000E+000	3.66800E-001	8.38842E-005	10	...........
	152	3.06	3.70276E-001	5.13342E-006	0.00000E+000	3.70800E-001	8.25498E-005	10	...........
	156	3.14	3.74080E-001	4.32104E-006	0.00000E+000	3.74800E-001	8.25498E-005	10	...........
	160	3.22	3.78105E-001	4.25932E-006	0.00000E+000	3.78800E-001	8.80543E-005	10	...........
	164	3.3	3.82126E-001	4.50787E-006	0.00000E+000	3.82800E-001	8.67199E-005	10	...........
	168	3.38	3.86151E-001	4.44115E-006	0.00000E+000	3.86800E-001	9.02227E-005	10	...........
	172	3.46	3.90336E-001	4.77978E-006	0.00000E+000	3.90800E-001	7.82963E-005	10	...........
	176	3.54	3.94100E-001	4.48786E-006	0.00000E+000	3.94800E-001	9.21410E-005	10	...........
	180	3.62	3.98019E-001	4.08417E-006	0.00000E+000	3.98800E-001	8.51352E-005	10	...........
	184	3.7	4.02066E-001	4.52622E-006	0.00000E+000	4.02800E-001	8.58025E-005	10	...........
	188	3.78	4.06083E-001	4.57460E-006	0.00000E+000	4.06800E-001	9.08065E-005	10	...........
	192	3.86	4.10110E-001	4.56125E-006	0.00000E+000	4.10800E-001	7.86299E-005	10	...........
	196	3.94	4.14220E-001	5.11006E-006	0.00000E+000	4.14800E-001	7.96307E-005	10	...........
	200	4.02	4.18080E-001	4.26433E-006	0.00000E+000	4.18800E-001	8.76373E-005	10	...........
	204	4.1	4.21880E-001	4.54624E-006	0.00000E+000	4.22800E-001	8.80543E-005	10	...........
	208	4.18	4.26093E-001	4.61296E-006	0.00000E+000	4.26800E-001	8.45514E-005	10	...........
	212	4.26	4.30128E-001	4.73974E-006	0.00000E+000	4.30800E-001	7.65449E-005	10	...........
	216	4.34	4.34381E-001	5.22183E-006	0.00000E+000	4.34800E-001	7.74623E-005	10	...........
	220	4.42	4.38025E-001	3.93571E-006	0.00000E+000	4.38800E-001	8.79709E-005	10	...........
	224	4.5	4.42069E-001	3.77056E-006	0.00000E+000	4.42800E-001	8.35506E-005	10	...........
	228	4.58	4.45982E-001	4.56125E-006	0.00000E+000	4.46800E-001	8.52186E-005	10	...........
	232	4.66	4.50073E-001	4.40612E-006	0.00000E+000	4.50800E-001	7.91303E-005	10	...........
	236	4.74	4.54227E-001	5.04167E-006	0.00000E+000	4.54800E-001	7.45432E-005	10	...........
	240	4.82	4.58074E-001	4.00076E-006	0.00000E+000	4.58800E-001	8.41344E-005	10	...........
	244	4.9	4.61969E-001	4.02078E-006	0.00000E+000	4.62800E-001	8.45514E-005	10	...........
	248	4.98	4.65993E-001	4.51955E-006	0.00000E+000	4.66800E-001	7.65449E-005	10	...........
	252	5.06	4.69995E-001	4.35274E-006	0.00000E+000	4.70800E-001	7.91303E-005	10	...........
	256	5.14	4.74062E-001	4.48118E-006	0.00000E+000	4.74800E-001	7.38760E-005	10	...........
	260	5.22	4.78178E-001	4.40278E-006	0.00000E+000	4.78800E-001	7.02898E-005	10	...........
	264	5.3	4.82055E-001	3.68883E-006	0.00000E+000	4.82800E-001	8.21328E-005	10	...........
	268	5.38	4.86014E-001	4.34773E-006	0.00000E+000	4.86800E-001	8.22996E-005	10	...........
	272	5.46	4.90054E-001	4.51955E-006	0.00000E+000	4.90800E-001	8.06316E-005	10	...........
	276	5.54	4.94003E-001	4.70972E-006	0.00000E+000	4.94800E-001	7.26250E-005	10	...........
	280	5.62	4.98161E-001	5.19847E-006	0.00000E+000	4.98800E-001	7.04566E-005	10	...........
	284	5.7	5.01945E-001	3.89734E-006	0.00000E+000	5.02800E-001	7.92971E-005	10	...........
	288	5.78	5.06036E-001	4.30269E-006	0.00000E+000	5.06800E-001	7.82129E-005	10	...........
	292	5.86	5.09992E-001	4.31437E-006	0.00000E+000	5.10800E-001	8.66365E-005	10	...........
	296	5.94	5.14046E-001	4.62965E-006	0.00000E+000	5.14800E-001	7.91303E-005	10	...........
	300	6.02	5.18160E-001	5.12508E-006	0.00000E+000	5.18800E-001	7.42096E-005	10	...........
	304	6.1	5.22012E-001	3.56539E-006	0.00000E+000	5.22800E-001	8.48016E-005	10	...........
	308	6.18	5.25885E-001	3.75388E-006	0.00000E+000	5.26800E-001	8.17158E-005	10	...........
	312	6.26	5.30001E-001	4.18092E-006	0.00000E+000	5.30800E-001	8.55522E-005	10	...........
	316	6.34	5.33955E-001	4.24931E-006	0.00000E+000	5.34800E-001	8.04647E-005	10	...........
	320	6.42	5.38051E-001	4.73974E-006	0.00000E+000	5.38800E-001	7.71287E-005	10	...........
	324	6.5	5.41967E-001	3.60375E-006	0.00000E+000	5.42800E-001	8.11320E-005	10	...........
	328	6.58	5.45996E-001	3.50367E-006	0.00000E+000	5.46800E-001	8.66365E-005	10	...........
	332	6.66	5.49854E-001	3.85063E-006	0.00000E+000	5.50800E-001	7.45432E-005	10	...........
	336	6.74	5.53991E-001	4.40945E-006	0.00000E+000	5.54800E-001	8.02980E-005	10	...........
	340	6.82	5.57978E-001	4.77144E-006	0.00000E+000	5.58800E-001	7.42096E-005	10	...........
	344	6.9	5.62191E-001	5.24185E-006	0.00000E+000	5.62800E-001	6.53691E-005	10	...........
	348	6.98	5.65899E-001	4.20594E-006	0.00000E+000	5.66800E-001	8.29668E-005	10	...........
	352	7.06	5.69979E-001	3.92403E-006	0.00000E+000	5.70800E-001	7.87133E-005	10	...........
	356	7.14	5.73889E-001	4.44282E-006	0.00000E+000	5.74800E-001	8.62195E-005	10	...........
	360	7.22	5.78011E-001	4.71138E-006	0.00000E+000	5.78800E-001	7.48768E-005	10	...........
	364	7.3	5.82101E-001	5.42200E-006	0.00000E+000	5.82800E-001	6.92889E-005	10	...........
	368	7.38	5.86002E-001	3.97241E-006	0.00000E+000	5.86800E-001	8.85547E-005	10	...........
	372	7.46	5.89852E-001	3.92904E-006	0.00000E+000	5.90800E-001	8.64697E-005	10	...........
	376	7.54	5.93924E-001	4.49786E-006	0.00000E+000	5.94800E-001	8.00477E-005	10	...........
	380	7.62	5.97885E-001	4.53289E-006	0.00000E+000	5.98800E-001	8.28000E-005	10	...........
	384	7.7	6.01980E-001	5.02165E-006	0.00000E+000	6.02800E-001	7.34590E-005	10	...........
	388	7.78	6.05910E-001	4.36441E-006	0.00000E+000	6.06800E-001	8.14656E-005	10	...........
	392	7.86	6.09978E-001	4.33939E-006	0.00000E+000	6.10800E-001	7.60445E-005	10	...........
	396	7.94	6.13873E-001	4.80313E-006	0.00000E+000	6.14800E-001	7.72121E-005	10	...........
	400	8.02	6.17946E-001	4.51621E-006	0.00000E+000	6.18800E-001	8.13822E-005	10	...........
	404	8.1	6.21851E-001	4.59295E-006	0.00000E+000	6.22800E-001	7.16242E-005	10	...........
	408	8.18	6.26026E-001	5.14343E-006	0.00000E+000	6.26800E-001	7.92137E-005	10	...........
	412	8.26	6.29824E-001	4.22763E-006	0.00000E+000	6.30800E-001	8.26332E-005	10	...........
	416	8.34	6.33934E-001	3.98909E-006	0.00000E+000	6.34800E-001	8.18826E-005	10	...........
	420	8.42	6.37844E-001	4.59795E-006	0.00000E+000	6.38800E-001	8.61361E-005	10	...........
	424	8.5	6.41956E-001	4.90989E-006	0.00000E+000	6.42800E-001	7.36258E-005	10	...........
	428	8.58	6.46035E-001	5.18680E-006	0.00000E+000	6.46800E-001	7.74623E-005	10	...........
	432	8.66	6.49959E-001	4.46117E-006	0.00000E+000	6.50800E-001	8.28834E-005	10	...........
	436	8.74	6.53750E-001	4.59628E-006	0.00000E+000	6.54800E-001	8.82211E-005	10	...........
	440	8.82	6.57810E-001	4.73474E-006	0.00000E+000	6.58800E-001	8.55522E-005	10	...........
	444	8.9	6.61820E-001	4.66134E-006	0.00000E+000	6.62800E-001	8.78041E-005	10	...........
	448	8.98	6.66041E-001	5.44369E-006	0.00000E+000	6.66800E-001	8.17992E-005	10	...........
	452	9.06	6.69813E-001	4.38443E-006	0.00000E+000	6.70800E-001	8.60526E-005	10	...........
	456	9.14	6.73875E-001	4.39778E-006	0.00000E+000	6.74800E-001	8.19660E-005	10	...........
	460	9.22	6.77755E-001	4.54457E-006	0.00000E+000	6.78800E-001	8.22996E-005	10	...........
	464	9.3	6.81870E-001	4.62130E-006	0.00000E+000	6.82800E-001	8.48850E-005	10	...........
	468	9.38	6.85830E-001	4.93658E-006	0.00000E+000	6.86800E-001	7.57943E-005	10	...........
	472	9.46	6.90030E-001	5.33026E-006	0.00000E+000	6.90800E-001	7.59611E-005	10	...........
	476	9.54	6.93782E-001	4.40278E-006	0.00000E+000	6.94800E-001	8.36340E-005	10	...........
	480	9.62	6.97886E-001	4.62798E-006	0.00000E+000	6.98800E-001	7.55441E-005	10	...........
	484	9.7	7.01767E-001	4.73974E-006	0.00000E+000	7.02800E-001	7.99643E-005	10	...........
	488	9.78	7.05907E-001	4.95993E-006	0.00000E+000	7.06800E-001	6.79545E-005	10	...........
	492	9.86	7.09943E-001	5.26353E-006	0.00000E+000	7.10800E-001	7.07902E-005	10	...........
	496	9.94	7.13888E-001	4.40445E-006	0.00000E+000	7.14800E-001	7.13740E-005	10	...........
	500	10.02	7.17739E-001	4.14756E-006	0.00000E+000	7.18800E-001	7.47100E-005	10	...........
	504	10.1	7.21758E-001	4.61130E-006	0.00000E+000	7.22800E-001	7.64615E-005	10	...........
	508	10.18	7.25758E-001	4.50620E-006	0.00000E+000	7.26800E-001	7.84631E-005	10	...........
	512	10.26	7.29909E-001	5.27354E-006	0.00000E+000	7.30800E-001	6.96225E-005	10	...........
	516	10.34	7.33766E-001	4.47451E-006	0.00000E+000	7.34800E-001	7.95473E-005	10	...........
	520	10.42	7.37943E-001	4.56292E-006	0.00000E+000	7.38800E-001	8.33004E-005	10	...........
	524	10.5	7.41750E-001	4.79145E-006	0.00000E+000	7.42800E-001	7.69619E-005	10	...........
	528	10.58	7.45861E-001	4.72306E-006	0.00000E+000	7.46800E-001	7.87133E-005	10	...........
	532	10.66	7.49720E-001	4.80313E-006	0.00000E+000	7.50800E-001	7.36258E-005	10	...........
	536	10.74	7.53874E-001	5.51875E-006	0.00000E+000	7.54800E-001	6.48687E-005	10	...........
	540	10.82	7.57681E-001	4.32438E-006	0.00000E+000	7.58800E-001	7.26250E-005	10	...........
	544	10.9	7.61797E-001	4.32438E-006	0.00000E+000	7.62800E-001	7.53773E-005	10	...........
	548	10.98	7.65654E-001	4.67969E-006	0.00000E+000	7.66800E-001	8.07150E-005	10	...........
	552	11.06	7.69856E-001	4.82148E-006	0.00000E+000	7.70800E-001	6.96225E-005	10	...........
	556	11.14	7.73908E-001	5.51542E-006	0.00000E+000	7.74800E-001	6.93723E-005	10	...........
	560	11.22	7.77814E-001	4.23597E-006	0.00000E+000	7.78800E-001	7.52939E-005	10	...........
	564	11.3	7.81631E-001	4.33439E-006	0.00000E+000	7.82800E-001	8.19660E-005	10	...........
	568	11.38	7.85696E-001	4.53623E-006	0.00000E+000	7.86800E-001	8.38008E-005	10	...........
	572	11.46	7.89745E-001	4.86985E-006	0.00000E+000	7.90800E-001	8.27166E-005	10	...........
	576	11.54	7.93955E-001	5.27020E-006	0.00000E+000	7.94800E-001	6.82881E-005	10	...........
	580	11.62	7.97706E-001	4.35107E-006	0.00000E+000	7.98800E-001	7.52105E-005	10	...........
	584	11.7	7.95745E-001	4.37276E-006	0.00000E+000	7.96800E-001	8.21328E-005	10	...........
	588	11.78	7.91729E-001	4.73140E-006	0.00000E+000	7.92800E-001	7.67951E-005	10	...........
	592	11.86	7.87696E-001	4.58794E-006	0.00000E+000	7.88800E-001	7.58777E-005	10	...........
	596	11.94	7.83743E-001	4.97495E-006	0.00000E+000	7.84800E-001	7.40428E-005	10	...........
	600	12.02	7.79812E-001	4.41279E-006	0.00000E+000	7.80800E-001	7.17076E-005	10	...........
	604	12.1	7.75832E-001	4.10752E-006	0.00000E+000	7.76800E-001	7.87133E-005	10	...........
	608	12.18	7.71754E-001	4.57960E-006	0.00000E+000	7.72800E-001	8.34672E-005	10	...........
	612	12.26	7.67744E-001	4.75642E-006	0.00000E+000	7.68800E-001	8.08818E-005	10	...........
	616	12.34	7.63792E-001	4.95826E-006	0.00000E+000	7.64800E-001	7.26250E-005	10	...........
	620	12.42	7.59885E-001	5.42701E-006	0.00000E+000	7.60800E-001	7.29586E-005	10	...........
	624	12.5	7.55718E-001	4.49953E-006	0.00000E+000	7.56800E-001	9.01393E-005	10	...........
	628	12.58	7.51691E-001	4.55124E-006	0.00000E+000	7.52800E-001	9.20576E-005	10	...........
	632	12.66	7.47760E-001	4.70137E-006	0.00000E+000	7.48800E-001	8.43846E-005	10	...........
	636	12.74	7.43719E-001	4.73474E-006	0.00000E+000	7.44800E-001	8.22162E-005	10	...........
	640	12.82	7.39957E-001	4.92323E-006	0.00000E+000	7.40800E-001	7.52939E-005	10	...........
	644	12.9	7.35798E-001	3.59875E-006	0.00000E+000	7.36800E-001	8.38008E-005	10	...........
	648	12.98	7.31908E-001	4.24598E-006	0.00000E+000	7.32800E-001	8.72203E-005	10	...........
	652	13.06	7.27703E-001	4.65133E-006	0.00000E+000	7.28800E-001	8.05482E-005	10	...........
	656	13.14	7.23776E-001	4.64966E-006	0.00000E+000	7.24800E-001	8.48016E-005	10	...........
	660	13.22	7.19801E-001	4.83482E-006	0.00000E+000	7.20800E-001	7.21246E-005	10	...........
	664	13.3	7.15823E-001	4.13421E-006	0.00000E+000	7.16800E-001	8.03814E-005	10	...........
	668	13.38	7.11825E-001	4.21929E-006	0.00000E+000	7.12800E-001	8.18826E-005	10	...........
	672	13.46	7.07789E-001	4.58294E-006	0.00000E+000	7.08800E-001	8.30502E-005	10	...........
	676	13.54	7.03748E-001	4.52789E-006	0.00000E+000	7.04800E-001	7.84631E-005	10	...........
	680	13.62	6.99835E-001	4.93992E-006	0.00000E+000	7.00800E-001	7.45432E-005	10	...........
	684	13.7	6.95994E-001	5.33359E-006	0.00000E+000	6.96800E-001	6.64533E-005	10	...........
	688	13.78	6.91822E-001	4.17425E-006	0.00000E+000	6.92800E-001	7.96307E-005	10	...........
	692	13.86	6.87797E-001	4.44282E-006	0.00000E+000	6.88800E-001	8.69701E-005	10	...........
	696	13.94	6.83830E-001	4.61630E-006	0.00000E+000	6.84800E-001	8.33838E-005	10	...........
	700	14.02	6.79909E-001	4.52956E-006	0.00000E+000	6.80800E-001	6.86217E-005	10	...........
	704	14.1	6.75995E-001	4.56792E-006	0.00000E+000	6.76800E-001	7.06234E-005	10	...........
	708	14.18	6.71813E-001	3.93571E-006	0.00000E+000	6.72800E-001	8.29668E-005	10	...........
	712	14.26	6.67850E-001	3.96740E-006	0.00000E+000	6.68800E-001	7.96307E-005	10	...........
	716	14.34	6.63824E-001	4.35941E-006	0.00000E+000	6.64800E-001	7.42930E-005	10	...........
	720	14.42	6.59825E-001	4.37276E-006	0.00000E+000	6.60800E-001	8.10486E-005	10	...........
	724	14.5	6.55904E-001	4.72306E-006	0.00000E+000	6.56800E-001	6.83715E-005	10	...........
	728	14.58	6.51829E-001	3.74221E-006	0.00000E+000	6.52800E-001	7.65449E-005	10	...........
	732	14.66	6.47838E-001	4.28268E-006	0.00000E+000	6.48800E-001	8.13822E-005	10	...........
	736	14.74	6.43856E-001	4.61130E-006	0.00000E+000	6.44800E-001	8.17992E-005	10	...........
	740	14.82	6.39882E-001	4.63298E-006	0.00000E+000	6.40800E-001	8.22162E-005	10	...........
	744	14.9	6.35917E-001	4.64799E-006	0.00000E+000	6.36800E-001	7.16242E-005	10	...........
	748	14.98	6.32084E-001	5.21349E-006	0.00000E+000	6.32800E-001	6.85383E-005	10	...........
	752	15.06	6.27812E-001	4.23764E-006	0.00000E+000	6.28800E-001	7.93805E-005	10	...........
	756	15.14	6.23834E-001	4.05248E-006	0.00000E+000	6.24800E-001	8.11320E-005	10	...........
	760	15.22	6.19893E-001	4.43614E-006	0.00000E+000	6.20800E-001	7.77125E-005	10	...........
	764	15.3	6.15895E-001	4.60796E-006	0.00000E+000	6.16800E-001	7.43764E-005	10	...........
	768	15.38	6.12090E-001	5.05001E-006	0.00000E+000	6.12800E-001	6.14492E-005	10	...........
	772	15.46	6.07923E-001	3.76890E-006	0.00000E+000	6.08800E-001	7.68785E-005	10	...........
	776	15.54	6.03869E-001	3.79892E-006	0.00000E+000	6.04800E-001	8.38008E-005	10	...........
	780	15.62	5.99852E-001	4.47785E-006	0.00000E+000	6.00800E-001	7.54607E-005	10	...........
	784	15.7	5.95909E-001	3.80393E-006	0.00000E+000	5.96800E-001	7.81295E-005	10	...........
	788	15.78	5.92075E-001	4.54457E-006	0.00000E+000	5.92800E-001	7.50437E-005	10	...........
	792	15.86	5.87967E-001	3.96573E-006	0.00000E+000	5.88800E-001	8.39676E-005	10	...........
	796	15.94	5.84068E-001	3.92236E-006	0.00000E+000	5.84800E-001	7.49603E-005	10	...........
	800	16.02	5.79930E-001	4.38944E-006	0.00000E+000	5.80800E-001	8.07150E-005	10	...........
	804	16.1	5.75905E-001	4.24264E-006	0.00000E+000	5.76800E-001	8.17992E-005	10	...........
	808	16.18	5.71934E-001	4.53456E-006	0.00000E+000	5.72800E-001	8.10486E-005	10	...........
	812	16.26	5.68138E-001	5.63385E-006	0.00000E+000	5.68800E-001	6.43683E-005	10	...........
	816	16.34	5.63937E-001	3.98742E-006	0.00000E+000	5.64800E-001	7.87133E-005	10	...........
	820	16.42	5.59991E-001	4.20594E-006	0.00000E+000	5.60800E-001	7.50437E-005	10	...........
	824	16.5	5.55964E-001	4.40945E-006	0.00000E+000	5.56800E-001	7.87133E-005	10	...........
	828	16.58	5.52105E-001	4.71472E-006	0.00000E+000	5.52800E-001	7.39594E-005	10	...........
	832	16.66	5.48113E-001	5.16178E-006	0.00000E+000	5.48800E-001	7.20412E-005	10	...........
	836	16.74	5.43977E-001	4.14756E-006	0.00000E+000	5.44800E-001	7.87967E-005	10	...........
	840	16.82	5.39971E-001	4.19093E-006	0.00000E+000	5.40800E-001	8.18826E-005	10	...........
	844	16.9	5.36012E-001	4.46117E-006	0.00000E+000	5.36800E-001	8.10486E-005	10	...........
	848	16.98	5.31976E-001	4.45950E-006	0.00000E+000	5.32800E-001	7.27918E-005	10	...........
	852	17.06	5.28190E-001	5.15343E-006	0.00000E+000	5.28800E-001	6.59529E-005	10	...........
	856	17.14	5.23949E-001	3.72552E-006	0.00000E+000	5.24800E-001	7.29586E-005	10	...........
	860	17.22	5.19969E-001	3.87399E-006	0.00000E+000	5.20800E-001	7.75457E-005	10	...........
	864	17.3	5.15985E-001	4.29102E-006	0.00000E+000	5.16800E-001	7.46266E-005	10	...........
	868	17.38	5.12096E-001	4.09084E-006	0.00000E+000	5.12800E-001	7.51270E-005	10	...........
	872	17.46	5.08053E-001	4.58461E-006	0.00000E+000	5.08800E-001	6.80379E-005	10	...........
	876	17.54	5.04044E-001	3.48365E-006	0.00000E+000	5.04800E-001	7.32088E-005	10	...........
	880	17.62	4.99936E-001	3.51534E-006	0.00000E+000	5.00800E-001	7.27084E-005	10	...........
	884	17.7	4.96002E-001	4.44448E-006	0.00000E+000	4.96800E-001	7.96307E-005	10	...........
	888	17.78	4.92029E-001	3.91402E-006	0.00000E+000	4.92800E-001	7.85465E-005	10	...........
	892	17.86	4.88144E-001	4.44782E-006	0.00000E+000	4.88800E-001	7.00396E-005	10	...........
	896	17.94	4.84207E-001	4.63298E-006	0.00000E+000	4.84800E-001	6.33674E-005	10	...........
	900	18.02	4.80119E-001	3.24511E-006	0.00000E+000	4.80800E-001	7.22914E-005	10	...........
	904	18.1	4.76025E-001	3.55704E-006	0.00000E+000	4.76800E-001	7.40428E-005	10	...........
	908	18.18	4.72010E-001	4.16758E-006	0.00000E+000	4.72800E-001	7.54607E-005	10	...........
	912	18.26	4.68048E-001	4.41446E-006	0.00000E+000	4.68800E-001	7.12072E-005	10	...........
	916	18.34	4.64294E-001	4.96327E-006	0.00000E+000	4.64800E-001	6.87885E-005	10	...........
	920	18.42	4.60068E-001	4.18092E-006	0.00000E+000	4.60800E-001	7.39594E-005	10	...........
	924	18.5	4.56230E-001	4.22930E-006	0.00000E+000	4.56800E-001	7.56275E-005	10	...........
	928	18.58	4.52033E-001	4.38944E-006	0.00000E+000	4.52800E-001	8.14656E-005	10	...........
	932	18.66	4.48057E-001	3.90902E-006	0.00000E+000	4.48800E-001	7.55441E-005	10	...........
	936	18.74	4.44135E-001	4.63632E-006	0.00000E+000	4.44800E-001	6.82047E-005	10	...........
	940	18.82	4.40087E-001	3.95573E-006	0.00000E+000	4.40800E-001	7.87133E-005	10	...........
	944	18.9	4.36060E-001	4.13922E-006	0.00000E+000	4.36800E-001	7.59611E-005	10	...........
	948	18.98	4.32162E-001	4.15924E-006	0.00000E+000	4.32800E-001	7.36258E-005	10	...........
	952	19.06	4.28105E-001	4.31270E-006	0.00000E+000	4.28800E-001	7.97141E-005	10	...........
	956	19.14	4.24366E-001	4.61130E-006	0.00000E+000	4.24800E-001	6.79545E-005	10	...........
	960	19.22	4.20238E-001	4.91489E-006	0.00000E+000	4.20800E-001	7.18744E-005	10	...........
	964	19.3	4.16134E-001	3.91235E-006	0.00000E+000	4.16800E-001	7.71287E-005	10	...........
	968	19.38	4.12083E-001	4.00577E-006	0.00000E+000	4.12800E-001	8.11320E-005	10	...........
	972	19.46	4.08171E-001	4.58127E-006	0.00000E+000	4.08800E-001	7.22080E-005	10	...........
	976	19.54	4.04098E-001	4.70805E-006	0.00000E+000	4.04800E-001	6.78711E-005	10	...........
	980	19.62	4.00332E-001	5.13175E-006	0.00000E+000	4.00800E-001	6.22832E-005	10	...........
	984	19.7	3.96073E-001	4.23096E-006	0.00000E+000	3.96800E-001	7.32088E-005	10	...........
	988	19.78	3.92166E-001	3.76222E-006	0.00000E+000	3.92800E-001	7.42096E-005	10	...........
	992	19.86	3.88112E-001	4.09918E-006	0.00000E+000	3.88800E-001	7.84631E-005	10	...........
	996	19.94	3.84315E-001	4.04914E-006	0.00000E+000	3.84800E-001	7.30420E-005	10	...........
	1000	20.02	3.80236E-001	5.00998E-006	0.00000E+000	3.80800E-001	7.04566E-005	10	...........
	1004	20.1	3.76154E-001	4.12921E-006	0.00000E+000	3.76800E-001	7.30420E-005	10	...........
	1008	20.18	3.72062E-001	3.51701E-006	0.00000E+000	3.72800E-001	6.73707E-005	10	...........
	1012	20.26	3.68175E-001	3.81227E-006	0.00000E+000	3.68800E-001	7.47934E-005	10	...........
	1016	20.34	3.64151E-001	3.99076E-006	0.00000E+000	3.64800E-001	7.32088E-005	10	...........
	1020	20.42	3.60300E-001	4.34440E-006	0.00000E+000	3.60800E-001	6.43683E-005	10	...........
	1024	20.5	3.56333E-001	4.71305E-006	0.00000E+000	3.56800E-001	6.49521E-005	10	...........
	1028	20.58	3.52223E-001	3.22008E-006	0.00000E+000	3.52800E-001	7.27084E-005	10	...........
	1032	20.66	3.48124E-001	3.32184E-006	0.00000E+000	3.48800E-001	7.85465E-005	10	...........
	1036	20.74	3.44162E-001	3.57539E-006	0.00000E+000	3.44800E-001	7.30420E-005	10	...........
	1040	20.82	3.40145E-001	3.96407E-006	0.00000E+000	3.40800E-001	6.97060E-005	10	...........
	1044	20.9	3.36419E-001	4.71472E-006	0.00000E+000	3.36800E-001	6.16994E-005	10	...........
	1048	20.98	3.32179E-001	3.42026E-006	0.00000E+000	3.32800E-001	7.54607E-005	10	...........
	1052	21.06	3.28344E-001	3.30182E-006	0.00000E+000	3.28800E-001	7.49603E-005	10	...........
	1056	21.14	3.24145E-001	3.99409E-006	0.00000E+000	3.24800E-001	7.70453E-005	10	...........
	1060	21.22	3.20185E-001	4.08417E-006	0.00000E+000	3.20800E-001	7.77125E-005	10	...........
	1064	21.3	3.16282E-001	4.65467E-006	0.00000E+000	3.16800E-001	6.32006E-005	10	...........
	1068	21.38	3.12207E-001	3.78224E-006	0.00000E+000	3.12800E-001	6.92055E-005	10	...........
	1072	21.46	3.08147E-001	3.46029E-006	0.00000E+000	3.08800E-001	7.58777E-005	10	...........
	1076	21.54	3.04300E-001	4.44949E-006	0.00000E+000	3.04800E-001	6.82881E-005	10	...........
	1080	21.62	3.00185E-001	4.42947E-006	0.00000E+000	3.00800E-001	6.95391E-005	10	...........
	1084	21.7	2.96364E-001	4.62130E-006	0.00000E+000	2.96800E-001	6.71205E-005	10	...........
	1088	21.78	2.92295E-001	4.65634E-006	0.00000E+000	2.92800E-001	7.17910E-005	10	...........
	1092	21.86	2.88313E-001	3.81394E-006	0.00000E+000	2.88800E-001	7.26250E-005	10	...........
	1096	21.94	2.84203E-001	4.26266E-006	0.00000E+000	2.84800E-001	7.53773E-005	10	...........
	1100	22.02	2.80333E-001	4.23430E-006	0.00000E+000	2.80800E-001	7.40428E-005	10	...........
	1104	22.1	2.76226E-001	4.56459E-006	0.00000E+000	2.76800E-001	7.12906E-005	10	...........
	1108	22.18	2.72463E-001	4.86985E-006	0.00000E+000	2.72800E-001	7.02898E-005	10	...........
	1112	22.26	2.68173E-001	4.48452E-006	0.00000E+000	2.68800E-001	7.97975E-005	10	...........
	1116	22.34	2.64234E-001	4.26099E-006	0.00000E+000	2.64800E-001	7.89635E-005	10	...........
	1120	22.42	2.60188E-001	4.14255E-006	0.00000E+000	2.60800E-001	8.17992E-005	10	...........
	1124	22.5	2.56374E-001	3.99409E-006	0.00000E+000	2.56800E-001	6.83715E-005	10	...........
	1128	22.58	2.52401E-001	5.04000E-006	0.00000E+000	2.52800E-001	6.30338E-005	10	...........
	1132	22.66	2.48268E-001	3.66380E-006	0.00000E+000	2.48800E-001	7.98809E-005	10	...........
	1136	22.74	2.44162E-001	3.48865E-006	0.00000E+000	2.44800E-001	7.39594E-005	10	...........
	1140	22.82	2.40304E-001	3.83062E-006	0.00000E+000	2.40800E-001	7.49603E-005	10	...........
	1144	22.9	2.36248E-001	4.18926E-006	0.00000E+000	2.36800E-001	7.08736E-005	10	...........
	1148	22.98	2.32385E-001	4.40779E-006	0.00000E+000	2.32800E-001	6.53691E-005	10	...........
	1152	23.06	2.28337E-001	4.37442E-006	0.00000E+000	2.28800E-001	7.09570E-005	10	...........
	1156	23.14	2.24359E-001	3.84062E-006	0.00000E+000	2.24800E-001	7.38760E-005	10	...........
	1160	23.22	2.20245E-001	4.30770E-006	0.00000E+000	2.20800E-001	7.34590E-005	10	...........
	1164	23.3	2.16248E-001	3.77056E-006	0.00000E+000	2.16800E-001	7.25416E-005	10	...........
	1168	23.38	2.12258E-001	4.04414E-006	0.00000E+000	2.12800E-001	6.96225E-005	10	...........
	1172	23.46	2.08501E-001	4.92657E-006	0.00000E+000	2.08800E-001	6.16994E-005	10	...........
	1176	23.54	2.04296E-001	3.54870E-006	0.00000E+000	2.04800E-001	7.30420E-005	10	...........
	1180	23.62	2.00405E-001	3.67381E-006	0.00000E+000	2.00800E-001	7.16242E-005	10	...........
	1184	23.7	1.96269E-001	3.97741E-006	0.00000E+000	1.96800E-001	7.27918E-005	10	...........
	1188	23.78	1.92369E-001	3.94238E-006	0.00000E+000	1.92800E-001	6.90387E-005	10	...........
	1192	23.86	1.88465E-001	4.54791E-006	0.00000E+000	1.88800E-001	7.25416E-005	10	...........
	1196	23.94	1.84402E-001	2.95319E-006	0.00000E+000	1.84800E-001	7.60445E-005	10	...........
	1200	24.02	1.80264E-001	3.19173E-006	0.00000E+000	1.80800E-001	7.48768E-005	10	...........
	1204	24.1	1.76355E-001	3.75555E-006	0.00000E+000	1.76800E-001	6.97060E-005	10	...........
	1208	24.18	1.72219E-001	3.34686E-006	0.00000E+000	1.72800E-001	7.40428E-005	10	...........
	1212	24.26	1.68488E-001	3.85731E-006	0.00000E+000	1.68800E-001	5.82799E-005	10	...........
	1216	24.34	1.64327E-001	2.55951E-006	0.00000E+000	1.64800E-001	7.53773E-005	10	...........
	1220	24.42	1.60407E-001	2.93817E-006	0.00000E+000	1.60800E-001	7.24582E-005	10	...........
	1224	24.5	1.56312E-001	3.47197E-006	0.00000E+000	1.56800E-001	7.82129E-005	10	...........
	1228	24.58	1.52424E-001	3.65713E-006	0.00000E+000	1.52800E-001	7.01230E-005	10	...........
	1232	24.66	1.48358E-001	3.86898E-006	0.00000E+000	1.48800E-001	6.46184E-005	10	...........
	1236	24.74	1.44552E-001	4.56125E-006	0.00000E+000	1.44800E-001	6.55359E-005	10	...........
	1240	24.82	1.40308E-001	3.38690E-006	0.00000E+000	1.40800E-001	7.42096E-005	10	...........
	1244	24.9	1.36387E-001	3.45195E-006	0.00000E+000	1.36800E-001	7.17076E-005	10	...........
	1248	24.98	1.32347E-001	4.13755E-006	0.00000E+000	1.32800E-001	7.67117E-005	10	...........
	1252	25.06	1.28356E-001	4.33772E-006	0.00000E+000	1.28800E-001	7.10404E-005	10	...........
	1256	25.14	1.24580E-001	4.44782E-006	0.00000E+000	1.24800E-001	6.74541E-005	10	...........
	1260	25.22	1.20439E-001	3.89734E-006	0.00000E+000	1.20800E-001	7.67117E-005	10	...........
	1264	25.3	1.16332E-001	4.14089E-006	0.00000E+000	1.16800E-001	7.92137E-005	10	...........
	1268	25.38	1.12415E-001	3.77557E-006	0.00000E+000	1.12800E-001	8.43846E-005	10	...........
	1272	25.46	1.08367E-001	4.11753E-006	0.00000E+000	1.08800E-001	8.16324E-005	10	...........
	1276	25.54	1.04583E-001	4.54290E-006	0.00000E+000	1.04800E-001	6.85383E-005	10	...........
	1280	25.62	1.00410E-001	3.29348E-006	0.00000E+000	1.00800E-001	8.27166E-005	10	...........
	1284	25.7	9.64409E-002	3.36521E-006	0.00000E+000	9.68000E-002	7.24582E-005	10	...........
	1288	25.78	9.23476E-002	4.08083E-006	0.00000E+000	9.28000E-002	7.33756E-005	10	...........
	1292	25.86	8.83816E-002	3.72386E-006	0.00000E+000	8.88000E-002	7.62113E-005	10	...........
	1296	25.94	8.44275E-002	4.39611E-006	0.00000E+000	8.48000E-002	7.02064E-005	10	...........
	1300	26.02	8.05900E-002	4.22262E-006	0.00000E+000	8.08000E-002	7.26250E-005	10	...........
	1304	26.1	7.64415E-002	3.71552E-006	0.00000E+000	7.68000E-002	7.54607E-005	10	...........
	1308	26.18	7.24782E-002	4.10419E-006	0.00000E+000	7.28000E-002	7.75457E-005	10	...........
	1312	26.26	6.84062E-002	4.35107E-006	0.00000E+000	6.88000E-002	8.27166E-005	10	...........
	1316	26.34	6.44571E-002	4.36775E-006	0.00000E+000	6.48000E-002	7.07068E-005	10	...........
	1320	26.42	6.05913E-002	4.60296E-006	0.00000E+000	6.08000E-002	7.39594E-005	10	...........
	1324	26.5	5.65079E-002	3.36188E-006	0.00000E+000	5.68000E-002	8.01311E-005	10	...........
	1328	26.58	5.23936E-002	3.64879E-006	0.00000E+000	5.28000E-002	7.38760E-005	10	...........
	1332	26.66	4.84787E-002	3.66047E-006	0.00000E+000	4.88000E-002	7.93805E-005	10	...........
	1336	26.74	4.44275E-002	3.76056E-006	0.00000E+000	4.48000E-002	7.62947E-005	10	...........
	1340	26.82	4.06232E-002	4.69137E-006	0.00000E+000	4.08000E-002	6.06152E-005	10	...........
	1344	26.9	3.64299E-002	3.55204E-006	0.00000E+000	3.68000E-002	7.49603E-005	10	...........
	1348	26.98	3.24848E-002	2.80639E-006	0.00000E+000	3.28000E-002	7.69619E-005	10	...........
	1352	27.06	2.84287E-002	3.67215E-006	0.00000E+000	2.88000E-002	7.14574E-005	10	...........
	1356	27.14	2.45153E-002	3.93404E-006	0.00000E+000	2.48000E-002	7.33756E-005	10	...........
	1360	27.22	2.05422E-002	4.17258E-006	0.00000E+000	2.08000E-002	7.27918E-005	10	...........
	1364	27.3	1.65331E-002	3.09664E-006	0.00000E+000	1.68000E-002	8.27166E-005	10	...........
	1368	27.38	1.25415E-002	2.72465E-006	0.00000E+000	1.28000E-002	7.58777E-005	10	...........
	1372	27.46	8.44952E-003	3.93738E-006	0.00000E+000	8.80001E-003	7.41262E-005	10	...........
	1376	27.54	4.43840E-003	3.79559E-006	0.00000E+000	4.80001E-003	8.07150E-005	10	...........
	1380	27.62	4.22869E-004	4.23263E-006	0.00000E+000	8.00014E-004	7.69619E-005	10	...........
	1384	27.7	-3.27866E-003	4.37943E-006	0.00000E+000	-3.19999E-003	6.77043E-005	10	...........
	1388	27.78	-7.49119E-003	2.22422E-006	0.00000E+000	-7.19999E-003	7.84631E-005	10	...........
	1392	27.86	-1.15116E-002	1.95065E-006	0.00000E+000	-1.12000E-002	7.16242E-005	10	...........
	1396	27.94	-1.54619E-002	3.05995E-006	0.00000E+000	-1.52000E-002	7.83797E-005	10	...........
	1400	28.02	-1.94639E-002	3.77724E-006	0.00000E+000	-1.92000E-002	7.25416E-005	10	...........
	1404	28.1	-2.32905E-002	3.90401E-006	0.00000E+000	-2.32000E-002	6.17828E-005	10	...........
	1408	28.18	-2.74243E-002	2.41772E-006	0.00000E+000	-2.72000E-002	7.35424E-005	10	...........
	1412	28.26	-3.14380E-002	2.50279E-006	0.00000E+000	-3.12000E-002	7.37092E-005	10	...........
	1416	28.34	-3.55046E-002	3.00990E-006	0.00000E+000	-3.52000E-002	7.78793E-005	10	...........
	1420	28.42	-3.94758E-002	3.18839E-006	0.00000E+000	-3.92000E-002	7.73789E-005	10	...........
	1424	28.5	-4.33338E-002	3.88566E-006	0.00000E+000	-4.32000E-002	6.22832E-005	10	...........
	1428	28.58	-4.74051E-002	2.65459E-006	0.00000E+000	-4.72000E-002	7.84631E-005	10	...........
	1432	28.66	-5.14466E-002	3.01657E-006	0.00000E+000	-5.12000E-002	7.69619E-005	10	...........
	1436	28.74	-5.54089E-002	3.16337E-006	0.00000E+000	-5.52000E-002	7.53773E-005	10	...........
	1440	28.82	-5.94314E-002	4.02245E-006	0.00000E+000	-5.92000E-002	7.90469E-005	10	...........
	1444	28.9	-6.34450E-002	4.35774E-006	0.00000E+000	-6.32000E-002	6.69537E-005	10	...........
	1448	28.98	-6.73092E-002	4.61630E-006	0.00000E+000	-6.72000E-002	6.78711E-005	10	...........
	1452	29.06	-7.14055E-002	3.44862E-006	0.00000E+000	-7.12000E-002	7.75457E-005	10	...........
	1456	29.14	-7.54389E-002	3.30349E-006	0.00000E+000	-7.52000E-002	8.46348E-005	10	...........
	1460	29.22	-7.93754E-002	2.83642E-006	0.00000E+000	-7.92000E-002	7.96307E-005	10	...........
	1464	29.3	-8.34129E-002	3.67882E-006	0.00000E+000	-8.32000E-002	7.12906E-005	10	...........
	1468	29.38	-8.72454E-002	4.34606E-006	0.00000E+000	-8.72000E-002	6.62865E-005	10	...........
	1472	29.46	-9.14464E-002	2.91982E-006	0.00000E+000	-9.12000E-002	7.59611E-005	10	...........
	1476	29.54	-9.53948E-002	2.66961E-006	0.00000E+000	-9.52000E-002	7.92971E-005	10	...........
	1480	29.62	-9.94470E-002	4.01578E-006	0.00000E+000	-9.92000E-002	8.38008E-005	10	...........
	1484	29.7	-1.03342E-001	3.92570E-006	0.00000E+000	-1.03200E-001	7.50437E-005	10	...........
	1488	29.78	-1.07143E-001	4.29102E-006	0.00000E+000	-1.07200E-001	6.86217E-005	10	...........
	1492	29.86	-1.11381E-001	3.71885E-006	0.00000E+000	-1.11200E-001	8.33004E-005	10	...........
	1496	29.94	-1.15398E-001	2.97487E-006	0.00000E+000	-1.15200E-001	8.41344E-005	10	...........
	1500	30.02	-1.19416E-001	4.27934E-006	0.00000E+000	-1.19200E-001	8.49684E-005	10	...........
	1504	30.1	-1.23416E-001	4.18759E-006	0.00000E+000	-1.23200E-001	7.82129E-005	10	...........
	1508	30.18	-1.27378E-001	4.51455E-006	0.00000E+000	-1.27200E-001	6.93723E-005	10	...........
	1512	30.26	-1.31215E-001	4.66801E-006	0.00000E+000	-1.31200E-001	7.73789E-005	10	...........
	1516	30.34	-1.35353E-001	4.12254E-006	0.00000E+000	-1.35200E-001	8.07150E-005	10	...........
	1520	30.42	-1.39371E-001	3.90902E-006	0.00000E+000	-1.39200E-001	8.12988E-005	10	...........
	1524	30.5	-1.43365E-001	4.27267E-006	0.00000E+000	-1.43200E-001	8.04647E-005	10	...........
	1528	30.58	-1.47343E-001	4.35107E-006	0.00000E+000	-1.47200E-001	6.76209E-005	10	...........
	1532	30.66	-1.51176E-001	4.70805E-006	0.00000E+000	-1.51200E-001	6.85383E-005	10	...........
	1536	30.74	-1.55345E-001	3.76389E-006	0.00000E+000	-1.55200E-001	7.97975E-005	10	...........
	1540	30.82	-1.59321E-001	4.12587E-006	0.00000E+000	-1.59200E-001	8.13822E-005	10	...........
	1544	30.9	-1.63399E-001	4.29269E-006	0.00000E+000	-1.63200E-001	7.97141E-005	10	...........
	1548	30.98	-1.67384E-001	4.38110E-006	0.00000E+000	-1.67200E-001	7.22080E-005	10	...........
	1552	31.06	-1.71156E-001	5.00164E-006	0.00000E+000	-1.71200E-001	6.82881E-005	10	...........
	1556	31.14	-1.75310E-001	4.06749E-006	0.00000E+000	-1.75200E-001	7.91303E-005	10	...........
	1560	31.22	-1.79312E-001	4.35941E-006	0.00000E+000	-1.79200E-001	8.31336E-005	10	...........
	1564	31.3	-1.83292E-001	4.58961E-006	0.00000E+000	-1.83200E-001	8.22996E-005	10	...........
	1568	31.38	-1.87297E-001	4.30770E-006	0.00000E+000	-1.87200E-001	7.97141E-005	10	...........
	1572	31.46	-1.91323E-001	4.77144E-006	0.00000E+000	-1.91200E-001	7.32922E-005	10	...........
	1576	31.54	-1.95309E-001	4.43448E-006	0.00000E+000	-1.95200E-001	7.66283E-005	10	...........
	1580	31.62	-1.99303E-001	4.21762E-006	0.00000E+000	-1.99200E-001	8.12988E-005	10	...........
	1584	31.7	-2.03211E-001	4.36441E-006	0.00000E+000	-2.03200E-001	7.74623E-005	10	...........
	1588	31.78	-2.07251E-001	4.60296E-006	0.00000E+000	-2.07200E-001	7.98809E-005	10	...........
	1592	31.86	-2.11264E-001	4.74475E-006	0.00000E+000	-2.11200E-001	6.89553E-005	10	...........
[...]
	2444	48.9	6.27765E-002	4.80980E-006	0.00000E+000	6.30000E-002	6.68703E-005	10	...........
	2446	48.94	6.47165E-002	4.52956E-006	0.00000E+000	6.50000E-002	7.01230E-005	10	...........
	2448	48.98	6.64917E-002	3.91069E-006	0.00000E+000	6.70000E-002	7.98809E-005	10	...........
	2450	49.02	6.86035E-002	2.98822E-006	0.00000E+000	6.90000E-002	7.64615E-005	10	...........
	2452	49.06	7.07457E-002	3.42693E-006	0.00000E+000	7.10000E-002	7.85465E-005	10	...........
	2454	49.1	7.26240E-002	3.24511E-006	0.00000E+000	7.30000E-002	7.86299E-005	10	...........
	2456	49.14	7.45820E-002	3.99576E-006	0.00000E+000	7.50000E-002	7.98809E-005	10	...........
	2458	49.18	7.66475E-002	3.82728E-006	0.00000E+000	7.70000E-002	7.58777E-005	10	...........
	2460	49.22	7.87444E-002	3.94071E-006	0.00000E+000	7.90000E-002	7.77125E-005	10	...........
	2462	49.26	8.06342E-002	4.12087E-006	0.00000E+000	8.10000E-002	6.99561E-005	10	...........
	2464	49.3	8.26149E-002	4.33939E-006	0.00000E+000	8.30000E-002	7.50437E-005	10	...........
	2466	49.34	8.47664E-002	5.08671E-006	0.00000E+000	8.50000E-002	6.97060E-005	10	...........
	2468	49.38	8.67251E-002	4.38610E-006	0.00000E+000	8.70000E-002	7.67117E-005	10	...........
	2470	49.42	8.85450E-002	4.25265E-006	0.00000E+000	8.90000E-002	7.88801E-005	10	...........
	2472	49.46	9.04989E-002	4.34440E-006	0.00000E+000	9.10000E-002	8.01311E-005	10	...........
	2474	49.5	9.25331E-002	4.58127E-006	0.00000E+000	9.30000E-002	8.28000E-005	10	...........
	2476	49.54	9.45825E-002	4.72973E-006	0.00000E+000	9.50000E-002	7.86299E-005	10	...........
	2478	49.58	9.65736E-002	4.67969E-006	0.00000E+000	9.70000E-002	7.97141E-005	10	...........
	2480	49.62	9.86808E-002	4.51788E-006	0.00000E+000	9.90000E-002	7.47934E-005	10	...........
	2482	49.66	1.00585E-001	4.50287E-006	0.00000E+000	1.01000E-001	8.38008E-005	10	...........
	2484	49.7	1.02679E-001	4.65133E-006	0.00000E+000	1.03000E-001	7.11238E-005	10	...........
	2486	49.74	1.04702E-001	4.92991E-006	0.00000E+000	1.05000E-001	6.99561E-005	10	...........
	2488	49.78	1.06716E-001	5.02999E-006	0.00000E+000	1.07000E-001	6.91221E-005	10	...........
	2490	49.82	1.08533E-001	4.12254E-006	0.00000E+000	1.09000E-001	8.08818E-005	10	...........
	2492	49.86	1.10594E-001	4.13255E-006	0.00000E+000	1.11000E-001	7.72121E-005	10	...........
	2494	49.9	1.12554E-001	4.48285E-006	0.00000E+000	1.13000E-001	7.62947E-005	10	...........
	2496	49.94	1.14457E-001	4.51955E-006	0.00000E+000	1.15000E-001	7.63781E-005	10	...........
	2498	49.98	1.16618E-001	4.59628E-006	0.00000E+000	1.17000E-001	7.62113E-005	10	...........
	2500	50.02	1.18685E-001	4.73307E-006	0.00000E+000	1.19000E-001	7.73789E-005	10	...........
	2502	50.06	1.20604E-001	4.50454E-006	0.00000E+000	1.21000E-001	8.13822E-005	10	...........
	2504	50.1	1.22554E-001	4.59962E-006	0.00000E+000	1.23000E-001	6.77043E-005	10	...........
	2506	50.14	1.24579E-001	4.61463E-006	0.00000E+000	1.25000E-001	7.35424E-005	10	...........
	2508	50.18	1.26818E-001	4.68636E-006	0.00000E+000	1.27000E-001	7.22914E-005	10	...........
	2510	50.22	1.28648E-001	4.75475E-006	0.00000E+000	1.29000E-001	6.77043E-005	10	...........
	2512	50.26	1.30534E-001	4.07750E-006	0.00000E+000	1.31000E-001	7.79627E-005	10	...........
	2514	50.3	1.32487E-001	4.21095E-006	0.00000E+000	1.33000E-001	7.96307E-005	10	...........
	2516	50.34	1.34621E-001	4.13922E-006	0.00000E+000	1.35000E-001	7.96307E-005	10	...........
	2518	50.38	1.36494E-001	4.50120E-006	0.00000E+000	1.37000E-001	8.06316E-005	10	...........
	2520	50.42	1.38510E-001	4.32438E-006	0.00000E+000	1.39000E-001	7.74623E-005	10	...........
	2522	50.46	1.40479E-001	4.28101E-006	0.00000E+000	1.41000E-001	7.70453E-005	10	...........
	2524	50.5	1.42710E-001	4.27934E-006	0.00000E+000	1.43000E-001	7.53773E-005	10	...........
	2526	50.54	1.44569E-001	4.47951E-006	0.00000E+000	1.45000E-001	7.22914E-005	10	...........
	2528	50.58	1.46637E-001	4.91990E-006	0.00000E+000	1.47000E-001	6.51189E-005	10	...........
	2530	50.62	1.48804E-001	5.17012E-006	0.00000E+000	1.49000E-001	6.44516E-005	10	...........
	2532	50.66	1.50633E-001	4.17592E-006	0.00000E+000	1.51000E-001	7.22080E-005	10	...........
	2534	50.7	1.52561E-001	4.33272E-006	0.00000E+000	1.53000E-001	7.87133E-005	10	...........
	2536	50.74	1.54471E-001	4.67135E-006	0.00000E+000	1.55000E-001	7.71287E-005	10	...........
	2538	50.78	1.56485E-001	4.36441E-006	0.00000E+000	1.57000E-001	8.14656E-005	10	...........
	2540	50.82	1.58609E-001	4.20094E-006	0.00000E+000	1.59000E-001	7.32922E-005	10	...........
	2542	50.86	1.60538E-001	4.42613E-006	0.00000E+000	1.61000E-001	8.47182E-005	10	...........
	2544	50.9	1.62515E-001	4.44282E-006	0.00000E+000	1.63000E-001	7.47934E-005	10	...........
	2546	50.94	1.64505E-001	4.50787E-006	0.00000E+000	1.65000E-001	7.11238E-005	10	...........
	2548	50.98	1.66573E-001	4.61630E-006	0.00000E+000	1.67000E-001	6.42014E-005	10	...........
	2550	51.02	1.68688E-001	4.92824E-006	0.00000E+000	1.69000E-001	6.05318E-005	10	...........
	2552	51.06	1.70684E-001	5.22016E-006	0.00000E+000	1.71000E-001	6.16160E-005	10	...........
	2554	51.1	1.72499E-001	4.24765E-006	0.00000E+000	1.73000E-001	8.35506E-005	10	...........
	2556	51.14	1.74693E-001	4.12254E-006	0.00000E+000	1.75000E-001	7.07902E-005	10	...........
	2558	51.18	1.76526E-001	3.87566E-006	0.00000E+000	1.77000E-001	8.01311E-005	10	...........
	2560	51.22	1.78514E-001	3.95739E-006	0.00000E+000	1.79000E-001	7.66283E-005	10	...........
	2562	51.26	1.80448E-001	4.37276E-006	0.00000E+000	1.81000E-001	7.80461E-005	10	...........
	2564	51.3	1.82580E-001	4.42613E-006	0.00000E+000	1.83000E-001	7.73789E-005	10	...........
	2566	51.34	1.84529E-001	4.47451E-006	0.00000E+000	1.85000E-001	7.61279E-005	10	...........
	2568	51.38	1.86595E-001	4.77144E-006	0.00000E+000	1.87000E-001	7.14574E-005	10	...........
	2570	51.42	1.88476E-001	4.79479E-006	0.00000E+000	1.89000E-001	7.32922E-005	10	...........
	2572	51.46	1.90667E-001	5.21349E-006	0.00000E+000	1.91000E-001	6.14492E-005	10	...........
	2574	51.5	1.92623E-001	5.06669E-006	0.00000E+000	1.93000E-001	6.12824E-005	10	...........
	2576	51.54	1.94466E-001	4.28101E-006	0.00000E+000	1.95000E-001	7.72955E-005	10	...........
	2578	51.58	1.96465E-001	4.19427E-006	0.00000E+000	1.97000E-001	7.38760E-005	10	...........
	2580	51.62	1.98630E-001	4.23263E-006	0.00000E+000	1.99000E-001	6.57861E-005	10	...........
	2582	51.66	2.00517E-001	4.32104E-006	0.00000E+000	2.01000E-001	7.62947E-005	10	...........
	2584	51.7	2.02504E-001	4.67802E-006	0.00000E+000	2.03000E-001	7.37092E-005	10	...........
	2586	51.74	2.04485E-001	4.35941E-006	0.00000E+000	2.05000E-001	7.47100E-005	10	...........
	2588	51.78	2.06621E-001	4.30103E-006	0.00000E+000	2.07000E-001	7.71287E-005	10	...........
	2590	51.82	2.08510E-001	4.54958E-006	0.00000E+000	2.09000E-001	7.52939E-005	10	...........
	2592	51.86	2.10519E-001	4.97328E-006	0.00000E+000	2.11000E-001	6.94557E-005	10	...........
	2594	51.9	2.12623E-001	4.88820E-006	0.00000E+000	2.13000E-001	6.71205E-005	10	...........
	2596	51.94	2.14509E-001	4.15924E-006	0.00000E+000	2.15000E-001	7.30420E-005	10	...........
	2598	51.98	2.16432E-001	4.05248E-006	0.00000E+000	2.17000E-001	7.12072E-005	10	...........
	2600	52.02	2.18364E-001	4.06415E-006	0.00000E+000	2.19000E-001	6.93723E-005	10	...........
	2602	52.06	2.20401E-001	4.02579E-006	0.00000E+000	2.21000E-001	7.70453E-005	10	...........
	2604	52.1	2.22505E-001	4.38110E-006	0.00000E+000	2.23000E-001	7.44598E-005	10	...........
	2606	52.14	2.24475E-001	4.40945E-006	0.00000E+000	2.25000E-001	7.73789E-005	10	...........
	2608	52.18	2.26453E-001	3.90902E-006	0.00000E+000	2.27000E-001	7.43764E-005	10	...........
	2610	52.22	2.28467E-001	4.09752E-006	0.00000E+000	2.29000E-001	7.47100E-005	10	...........
	2612	52.26	2.30595E-001	4.44282E-006	0.00000E+000	2.31000E-001	6.94557E-005	10	...........
	2614	52.3	2.32637E-001	4.52289E-006	0.00000E+000	2.33000E-001	6.75375E-005	10	...........
	2616	52.34	2.34591E-001	4.14756E-006	0.00000E+000	2.35000E-001	6.28670E-005	10	...........
	2618	52.38	2.36424E-001	3.15169E-006	0.00000E+000	2.37000E-001	7.87133E-005	10	...........
	2620	52.42	2.38469E-001	3.17505E-006	0.00000E+000	2.39000E-001	7.38760E-005	10	...........
	2622	52.46	2.40455E-001	3.17004E-006	0.00000E+000	2.41000E-001	7.97141E-005	10	...........
	2624	52.5	2.42407E-001	3.02158E-006	0.00000E+000	2.43000E-001	7.16242E-005	10	...........
	2626	52.54	2.44354E-001	3.46697E-006	0.00000E+000	2.45000E-001	6.97893E-005	10	...........
	2628	52.58	2.46467E-001	3.60709E-006	0.00000E+000	2.47000E-001	7.24582E-005	10	...........
	2630	52.62	2.48451E-001	3.45863E-006	0.00000E+000	2.49000E-001	7.58777E-005	10	...........
	2632	52.66	2.50432E-001	4.30603E-006	0.00000E+000	2.51000E-001	6.77877E-005	10	...........
	2634	52.7	2.52429E-001	4.49786E-006	0.00000E+000	2.53000E-001	6.84549E-005	10	...........
	2636	52.74	2.54664E-001	4.53957E-006	0.00000E+000	2.55000E-001	6.76209E-005	10	...........
	2638	52.78	2.56535E-001	3.74888E-006	0.00000E+000	2.57000E-001	7.30420E-005	10	...........
	2640	52.82	2.58430E-001	3.00156E-006	0.00000E+000	2.59000E-001	7.79627E-005	10	...........
	2642	52.86	2.60409E-001	3.25512E-006	0.00000E+000	2.61000E-001	8.27166E-005	10	...........
	2644	52.9	2.62460E-001	2.97154E-006	0.00000E+000	2.63000E-001	7.44598E-005	10	...........
	2646	52.94	2.64435E-001	3.70551E-006	0.00000E+000	2.65000E-001	7.90469E-005	10	...........
	2648	52.98	2.66392E-001	3.72219E-006	0.00000E+000	2.67000E-001	7.81295E-005	10	...........
	2650	53.02	2.68370E-001	3.58040E-006	0.00000E+000	2.69000E-001	7.51270E-005	10	...........
	2652	53.06	2.70627E-001	3.78391E-006	0.00000E+000	2.71000E-001	7.20412E-005	10	...........
	2654	53.1	2.72466E-001	4.32938E-006	0.00000E+000	2.73000E-001	7.00396E-005	10	...........
	2656	53.14	2.74516E-001	4.21595E-006	0.00000E+000	2.75000E-001	6.35342E-005	10	...........
	2658	53.18	2.76645E-001	4.48452E-006	0.00000E+000	2.77000E-001	6.47853E-005	10	...........
	2660	53.22	2.78470E-001	3.63545E-006	0.00000E+000	2.79000E-001	7.07902E-005	10	...........
	2662	53.26	2.80464E-001	3.21008E-006	0.00000E+000	2.81000E-001	7.59611E-005	10	...........
	2664	53.3	2.82380E-001	3.18672E-006	0.00000E+000	2.83000E-001	7.48768E-005	10	...........
	2666	53.34	2.84364E-001	2.91148E-006	0.00000E+000	2.85000E-001	7.55441E-005	10	...........
	2668	53.38	2.86381E-001	3.43194E-006	0.00000E+000	2.87000E-001	7.73789E-005	10	...........
	2670	53.42	2.88435E-001	3.60375E-006	0.00000E+000	2.89000E-001	8.02145E-005	10	...........
	2672	53.46	2.90392E-001	3.74221E-006	0.00000E+000	2.91000E-001	7.61279E-005	10	...........
	2674	53.5	2.92383E-001	3.90401E-006	0.00000E+000	2.93000E-001	7.07902E-005	10	...........
	2676	53.54	2.94395E-001	4.24264E-006	0.00000E+000	2.95000E-001	6.24500E-005	10	...........
	2678	53.58	2.96549E-001	4.70638E-006	0.00000E+000	2.97000E-001	6.21164E-005	10	...........
	2680	53.62	2.98544E-001	4.62130E-006	0.00000E+000	2.99000E-001	6.62031E-005	10	...........
	2682	53.66	3.00346E-001	3.52869E-006	0.00000E+000	3.01000E-001	7.69619E-005	10	...........
	2684	53.7	3.02546E-001	3.21675E-006	0.00000E+000	3.03000E-001	7.20412E-005	10	...........
	2686	53.74	3.04411E-001	3.51034E-006	0.00000E+000	3.05000E-001	7.89635E-005	10	...........
	2688	53.78	3.06402E-001	3.77890E-006	0.00000E+000	3.07000E-001	7.69619E-005	10	...........
	2690	53.82	3.08291E-001	4.25599E-006	0.00000E+000	3.09000E-001	7.51270E-005	10	...........
	2692	53.86	3.10397E-001	4.09752E-006	0.00000E+000	3.11000E-001	7.15408E-005	10	...........
	2694	53.9	3.12414E-001	3.98075E-006	0.00000E+000	3.13000E-001	7.19578E-005	10	...........
	2696	53.94	3.14371E-001	4.69470E-006	0.00000E+000	3.15000E-001	6.63699E-005	10	...........
	2698	53.98	3.16345E-001	4.41446E-006	0.00000E+000	3.17000E-001	7.02064E-005	10	...........
	2700	54.02	3.18488E-001	4.45283E-006	0.00000E+000	3.19000E-001	6.21164E-005	10	...........
	2702	54.06	3.20491E-001	4.51288E-006	0.00000E+000	3.21000E-001	5.81131E-005	10	...........
	2704	54.1	3.22348E-001	3.55204E-006	0.00000E+000	3.23000E-001	7.57109E-005	10	...........
	2706	54.14	3.24315E-001	3.45362E-006	0.00000E+000	3.25000E-001	7.44598E-005	10	...........
	2708	54.18	3.26285E-001	3.29849E-006	0.00000E+000	3.27000E-001	6.90387E-005	10	...........
	2710	54.22	3.28429E-001	3.44194E-006	0.00000E+000	3.29000E-001	7.25416E-005	10	...........
	2712	54.26	3.30366E-001	3.94071E-006	0.00000E+000	3.31000E-001	7.43764E-005	10	...........
	2714	54.3	3.32358E-001	4.03413E-006	0.00000E+000	3.33000E-001	7.01230E-005	10	...........
	2716	54.34	3.34431E-001	3.68382E-006	0.00000E+000	3.35000E-001	7.39594E-005	10	...........
	2718	54.38	3.36451E-001	4.10419E-006	0.00000E+000	3.37000E-001	6.92055E-005	10	...........
	2720	54.42	3.38386E-001	4.34606E-006	0.00000E+000	3.39000E-001	6.62031E-005	10	...........
	2722	54.46	3.40475E-001	4.64633E-006	0.00000E+000	3.41000E-001	5.48605E-005	10	...........
	2724	54.5	3.42377E-001	3.34853E-006	0.00000E+000	3.43000E-001	7.07902E-005	10	...........
	2726	54.54	3.44324E-001	3.07329E-006	0.00000E+000	3.45000E-001	7.30420E-005	10	...........
	2728	54.58	3.46260E-001	3.33852E-006	0.00000E+000	3.47000E-001	7.13740E-005	10	...........
	2730	54.62	3.48221E-001	3.19340E-006	0.00000E+000	3.49000E-001	7.50437E-005	10	...........
	2732	54.66	3.50308E-001	3.96740E-006	0.00000E+000	3.51000E-001	7.31254E-005	10	...........
	2734	54.7	3.52386E-001	3.65713E-006	0.00000E+000	3.53000E-001	7.21246E-005	10	...........
	2736	54.74	3.54350E-001	3.59541E-006	0.00000E+000	3.55000E-001	7.26250E-005	10	...........
	2738	54.78	3.56323E-001	3.70551E-006	0.00000E+000	3.57000E-001	7.12906E-005	10	...........
	2740	54.82	3.58429E-001	4.07249E-006	0.00000E+000	3.59000E-001	6.72873E-005	10	...........
	2742	54.86	3.60513E-001	4.08083E-006	0.00000E+000	3.61000E-001	6.62865E-005	10	...........
	2744	54.9	3.62484E-001	4.35607E-006	0.00000E+000	3.63000E-001	6.37010E-005	10	...........
	2746	54.94	3.64318E-001	3.15503E-006	0.00000E+000	3.65000E-001	7.81295E-005	10	...........
	2748	54.98	3.62355E-001	3.74387E-006	0.00000E+000	3.63000E-001	7.37926E-005	10	...........
	2750	55.02	3.60427E-001	3.53036E-006	0.00000E+000	3.61000E-001	7.42930E-005	10	...........
	2752	55.06	3.58324E-001	3.39190E-006	0.00000E+000	3.59000E-001	7.18744E-005	10	...........
	2754	55.1	3.56325E-001	3.91569E-006	0.00000E+000	3.57000E-001	7.66283E-005	10	...........
	2756	55.14	3.54367E-001	4.22429E-006	0.00000E+000	3.55000E-001	7.37926E-005	10	...........
	2758	55.18	3.52430E-001	3.91569E-006	0.00000E+000	3.53000E-001	7.00396E-005	10	...........
	2760	55.22	3.50368E-001	4.30770E-006	0.00000E+000	3.51000E-001	6.76209E-005	10	...........
	2762	55.26	3.48359E-001	4.29435E-006	0.00000E+000	3.49000E-001	6.67869E-005	10	...........
	2764	55.3	3.46458E-001	4.74975E-006	0.00000E+000	3.47000E-001	6.03650E-005	10	...........
	2766	55.34	3.44472E-001	4.57793E-006	0.00000E+000	3.45000E-001	6.61197E-005	10	...........
	2768	55.38	3.42358E-001	3.71051E-006	0.00000E+000	3.43000E-001	7.48768E-005	10	...........
	2770	55.42	3.40334E-001	3.93571E-006	0.00000E+000	3.41000E-001	8.12154E-005	10	...........
	2772	55.46	3.38368E-001	3.94738E-006	0.00000E+000	3.39000E-001	7.87133E-005	10	...........
	2774	55.5	3.36276E-001	3.98742E-006	0.00000E+000	3.37000E-001	7.46266E-005	10	...........
	2776	55.54	3.34410E-001	4.30937E-006	0.00000E+000	3.35000E-001	7.41262E-005	10	...........
	2778	55.58	3.32375E-001	4.14089E-006	0.00000E+000	3.33000E-001	7.87133E-005	10	...........
	2780	55.62	3.30396E-001	4.45116E-006	0.00000E+000	3.31000E-001	7.82129E-005	10	...........
	2782	55.66	3.28460E-001	4.40445E-006	0.00000E+000	3.29000E-001	6.74541E-005	10	...........
	2784	55.7	3.26511E-001	4.13755E-006	0.00000E+000	3.27000E-001	6.42014E-005	10	...........
	2786	55.74	3.24524E-001	4.45283E-006	0.00000E+000	3.25000E-001	6.86217E-005	10	...........
	2788	55.78	3.22397E-001	3.75722E-006	0.00000E+000	3.23000E-001	7.70453E-005	10	...........
	2790	55.82	3.20394E-001	3.56872E-006	0.00000E+000	3.21000E-001	7.32088E-005	10	...........
	2792	55.86	3.18312E-001	3.95739E-006	0.00000E+000	3.19000E-001	7.27918E-005	10	...........
	2794	55.9	3.16335E-001	3.88900E-006	0.00000E+000	3.17000E-001	7.23748E-005	10	...........
	2796	55.94	3.14347E-001	4.55291E-006	0.00000E+000	3.15000E-001	7.31254E-005	10	...........
	2798	55.98	3.12422E-001	4.40445E-006	0.00000E+000	3.13000E-001	7.69619E-005	10	...........
	2800	56.02	3.10405E-001	4.34273E-006	0.00000E+000	3.11000E-001	7.47100E-005	10	...........
	2802	56.06	3.08364E-001	4.39778E-006	0.00000E+000	3.09000E-001	7.14574E-005	10	...........
	2804	56.1	3.06458E-001	4.37776E-006	0.00000E+000	3.07000E-001	7.03732E-005	10	...........
	2806	56.14	3.04598E-001	5.10339E-006	0.00000E+000	3.05000E-001	6.42014E-005	10	...........
	2808	56.18	3.02705E-001	4.96994E-006	0.00000E+000	3.03000E-001	6.21998E-005	10	...........
	2810	56.22	3.00375E-001	3.90735E-006	0.00000E+000	3.01000E-001	7.97975E-005	10	...........
	2812	56.26	2.98408E-001	3.98742E-006	0.00000E+000	2.99000E-001	7.72955E-005	10	...........
	2814	56.3	2.96437E-001	3.55204E-006	0.00000E+000	2.97000E-001	7.80461E-005	10	...........
	2816	56.34	2.94382E-001	4.08250E-006	0.00000E+000	2.95000E-001	7.56275E-005	10	...........
	2818	56.38	2.92357E-001	4.18259E-006	0.00000E+000	2.93000E-001	7.69619E-005	10	...........
	2820	56.42	2.90404E-001	4.07083E-006	0.00000E+000	2.91000E-001	6.96225E-005	10	...........
	2822	56.46	2.88457E-001	3.99242E-006	0.00000E+000	2.89000E-001	7.74623E-005	10	...........
	2824	56.5	2.86485E-001	4.46283E-006	0.00000E+000	2.87000E-001	6.72039E-005	10	...........
	2826	56.54	2.84417E-001	4.46784E-006	0.00000E+000	2.85000E-001	6.88719E-005	10	...........
	2828	56.58	2.82557E-001	4.94325E-006	0.00000E+000	2.83000E-001	5.52775E-005	10	...........
	2830	56.62	2.80536E-001	4.26766E-006	0.00000E+000	2.81000E-001	7.36258E-005	10	...........
	2832	56.66	2.78498E-001	3.94905E-006	0.00000E+000	2.79000E-001	7.46266E-005	10	...........
	2834	56.7	2.76420E-001	3.29515E-006	0.00000E+000	2.77000E-001	8.17158E-005	10	...........
	2836	56.74	2.74410E-001	3.61209E-006	0.00000E+000	2.75000E-001	8.21328E-005	10	...........
	2838	56.78	2.72467E-001	4.29435E-006	0.00000E+000	2.73000E-001	8.06316E-005	10	...........
	2840	56.82	2.70705E-001	4.33939E-006	0.00000E+000	2.71000E-001	7.24582E-005	10	...........
	2842	56.86	2.68390E-001	3.90568E-006	0.00000E+000	2.69000E-001	7.85465E-005	10	...........
	2844	56.9	2.66436E-001	4.04580E-006	0.00000E+000	2.67000E-001	7.73789E-005	10	...........
	2846	56.94	2.64500E-001	4.53790E-006	0.00000E+000	2.65000E-001	7.11238E-005	10	...........
	2848	56.98	2.62612E-001	4.89654E-006	0.00000E+000	2.63000E-001	5.93642E-005	10	...........
	2850	57.02	2.60604E-001	4.80313E-006	0.00000E+000	2.61000E-001	6.29504E-005	10	...........
	2852	57.06	2.58459E-001	3.30349E-006	0.00000E+000	2.59000E-001	7.95473E-005	10	...........
	2854	57.1	2.56482E-001	2.69129E-006	0.00000E+000	2.57000E-001	8.02145E-005	10	...........
	2856	57.14	2.54515E-001	3.65546E-006	0.00000E+000	2.55000E-001	7.69619E-005	10	...........
	2858	57.18	2.52416E-001	3.15169E-006	0.00000E+000	2.53000E-001	8.13822E-005	10	...........
	2860	57.22	2.50408E-001	3.70884E-006	0.00000E+000	2.51000E-001	7.17076E-005	10	...........
	2862	57.26	2.48468E-001	3.88400E-006	0.00000E+000	2.49000E-001	7.94639E-005	10	...........
	2864	57.3	2.46487E-001	3.69383E-006	0.00000E+000	2.47000E-001	7.59611E-005	10	...........
	2866	57.34	2.44409E-001	4.30269E-006	0.00000E+000	2.45000E-001	6.77043E-005	10	...........
	2868	57.38	2.42463E-001	3.86565E-006	0.00000E+000	2.43000E-001	6.76209E-005	10	...........
	2870	57.42	2.40646E-001	4.29936E-006	0.00000E+000	2.41000E-001	5.56111E-005	10	...........
	2872	57.46	2.38608E-001	3.55538E-006	0.00000E+000	2.39000E-001	6.51189E-005	10	...........
	2874	57.5	2.36434E-001	2.04573E-006	0.00000E+000	2.37000E-001	7.77959E-005	10	...........
	2876	57.54	2.34452E-001	2.61623E-006	0.00000E+000	2.35000E-001	7.61279E-005	10	...........