File: 20191128/Matning2/CVTESTKRISTALL2BOX5.DTA
EXPLAIN
TAG	CV
TITLE	LABEL	CV	Test &Identifier
DATE	LABEL	11/28/2019	Date
TIME	LABEL	16:16:03	Time
NOTES	NOTES	1	&Notes...

PSTAT	PSTAT	REF600-16093	Potentiostat
VINIT	POTEN	0.00000E+000	T	Initial &E (V)
VLIMIT1	POTEN	8.00000E-001	F	Scan Limit &1 (V)
VLIMIT2	POTEN	-5.00000E-001	F	Scan Limit &2 (V)
VFINAL	POTEN	0.00000E+000	T	Final &E (V)
SCANRATE	QUANT	4.99999E+001	&Scan Rate (mV/s)
STEPSIZE	QUANT	1.00000E+000	St&ep Size (mV)
CYCLES	IQUANT	5	C&ycles (#)
IMODE	SELECTOR	1	I/E Range &Mode
IRANGE	QUANT	1.50000E+001	&Max Current (mA)
AREA	QUANT	1.00000E+000	Electrode &Area (cm^2)
ELECTRODETYPE	SELECTOR	0	Electrode Type
STRIPPING	TOGGLE	F	Used for Stripping
POLARITY	TOGGLE	F	Signal Polarity
CONDIT	TWOPARAM	F	1.50000E+001	0.00000E+000	Conditionin&g	Time(s)	E(V)
DELAY	TWOPARAM	T	5.00000E+000	0.00000E+000	Init. De&lay	Time(s)	Stab.(mV/s)
EQDELAY	QUANT	3.00000E+000	Equil. &Time (s)
IRCOMP	SELECTOR	0	IRCom&p
PFCOR	QUANT	0.00000E+000	PF Corr. (ohm)
SAMPLINGMODE	SELECTOR	2	Sampling &Mode
OCVCURVE	TABLE	20
	Pt	T	Vf	Vm	Ach	Over
	#	s	V vs. Ref.	V	V	bits
	0	0.25	1.74788E-001	1.74788E-001	1.54016E-004	...........
	1	0.5	1.74787E-001	1.74723E-001	1.56891E-004	...........
	2	0.75	1.74781E-001	1.74782E-001	1.56932E-004	...........
	3	1	1.74774E-001	1.74832E-001	1.55932E-004	...........
	4	1.25	1.74775E-001	1.74873E-001	1.56391E-004	...........
	5	1.5	1.74790E-001	1.74803E-001	1.53099E-004	...........
	6	1.75	1.74810E-001	1.74751E-001	1.59891E-004	...........
	7	2	1.74818E-001	1.74813E-001	1.57432E-004	...........
	8	2.25	1.74809E-001	1.74710E-001	1.54182E-004	...........
	9	2.5	1.74791E-001	1.74787E-001	1.51307E-004	...........
	10	2.75	1.74776E-001	1.74835E-001	1.53891E-004	...........
	11	3	1.74775E-001	1.74871E-001	1.55432E-004	...........
	12	3.25	1.74790E-001	1.74804E-001	1.58099E-004	...........
	13	3.5	1.74811E-001	1.74767E-001	1.57474E-004	...........
	14	3.75	1.74820E-001	1.74798E-001	1.55516E-004	...........
	15	4	1.74811E-001	1.74726E-001	1.58932E-004	...........
	16	4.25	1.74795E-001	1.74794E-001	1.60807E-004	...........
	17	4.5	1.74780E-001	1.74817E-001	1.57432E-004	...........
	18	4.75	1.74777E-001	1.74869E-001	1.56557E-004	...........
	19	5	1.74791E-001	1.74813E-001	1.55557E-004	...........
EOC	QUANT	0.1747906	Open Circuit (V)
PSTATMODEL	IQUANT	4	Pstat Model
PSTATSECTION	LABEL	REF600-16093	Pstat Section
PSTATSERIALNO	LABEL	16093	Pstat Serial Number
CTRLMODE	IQUANT	1	Control Mode
IESTAB	IQUANT	2	I/E Stability
CASPEED	IQUANT	2	Control Amp Speed
CONVENTION	IQUANT	1	Current Convention
ICHRANGE	IQUANT	2	Ich Range
ICHRANGEMODE	TOGGLE	F	Ich Auto Range
ICHOFFSETENABLE	TOGGLE	F	Ich Offset Enable
ICHOFFSET	QUANT	0	Ich Offset (V)
ICHFILTER	IQUANT	2	Ich Filter
VCHRANGE	IQUANT	2	Vch Range
VCHRANGEMODE	TOGGLE	F	Vch Auto Range
VCHOFFSETENABLE	TOGGLE	F	Vch Offset Enable
VCHOFFSET	QUANT	0	Vch Offset (V)
VCHFILTER	IQUANT	2	Vch Filter
ACHRANGE	IQUANT	2	Ach Range
ACHOFFSETENABLE	TOGGLE	F	Ach Offset Enable
ACHOFFSET	QUANT	0	Ach Offset (V)
ACHFILTER	IQUANT	1	Ach Filter
IERANGELOWERLIMIT	IQUANT	1	I/E Range Lower Limit
IERANGEMODE	TOGGLE	F	I/E AutoRange
IERANGE	IQUANT	10	I/E Range
POSFEEDENABLE	TOGGLE	F	Positive Feedback IR Comp
POSFEEDRESISTANCE	QUANT	0	Positive Feedback Resistance (ohm)
ACHSELECT	IQUANT	0	Ach Select
CABLEID	IQUANT	14	Cable ID
DCCALDATE	LABEL	11/5/2019	DC Calibration Date
ACCALDATE	LABEL		AC Calibration Date
THERMOSELECT	IQUANT	1	Thermo Select
FRAMEWORKVERSION	QUANT	6.12	Framework Version
INSTRUMENTVERSION	LABEL	3.11	Instrument Version
EXPERIMENTABORTED	TOGGLE	T	Experiment Aborted
CURVE	TABLE	4741
	Pt	T	Vf	Im	Vu	Sig	Ach	IERange	Over	Cycle
	#	s	V vs. Ref.	A	V	V	V	#	bits	#
	0	0.02	1.74503E-001	4.82344E-006	0.00000E+000	1.74800E-001	7.57215E-005	10	...........	0
	9	0.2	1.83378E-001	7.16048E-006	0.00000E+000	1.83800E-001	7.83903E-005	10	...........	0
	18	0.38	1.92410E-001	6.59165E-006	0.00000E+000	1.92800E-001	7.39701E-005	10	...........	0
	27	0.56	2.01382E-001	7.29893E-006	0.00000E+000	2.01800E-001	7.88907E-005	10	...........	0
	36	0.74	2.10360E-001	6.80016E-006	0.00000E+000	2.10800E-001	7.40535E-005	10	...........	0
	45	0.92	2.19562E-001	6.99200E-006	0.00000E+000	2.19800E-001	7.71393E-005	10	...........	0
	54	1.1	2.28276E-001	7.49744E-006	0.00000E+000	2.28800E-001	8.13094E-005	10	...........	0
	63	1.28	2.37354E-001	7.27891E-006	0.00000E+000	2.37800E-001	8.18932E-005	10	...........	0
	72	1.46	2.46315E-001	7.66091E-006	0.00000E+000	2.46800E-001	6.77983E-005	10	...........	0
	81	1.64	2.55343E-001	8.31481E-006	0.00000E+000	2.55800E-001	7.57215E-005	10	...........	0
	90	1.82	2.64366E-001	8.29980E-006	0.00000E+000	2.64800E-001	7.26356E-005	10	...........	0
	99	2	2.73306E-001	8.74519E-006	0.00000E+000	2.73800E-001	7.69725E-005	10	...........	0
	108	2.18	2.82295E-001	9.38241E-006	0.00000E+000	2.82800E-001	7.31360E-005	10	...........	0
	117	2.36	2.91316E-001	9.26898E-006	0.00000E+000	2.91800E-001	7.57215E-005	10	...........	0
	126	2.54	3.00219E-001	9.95124E-006	0.00000E+000	3.00800E-001	7.57215E-005	10	...........	0
	135	2.72	3.09288E-001	1.01714E-005	0.00000E+000	3.09800E-001	7.65555E-005	10	...........	0
	144	2.9	3.18226E-001	1.12057E-005	0.00000E+000	3.18800E-001	6.60469E-005	10	...........	0
	153	3.08	3.27280E-001	1.16511E-005	0.00000E+000	3.27800E-001	6.40453E-005	10	...........	0
	162	3.26	3.36357E-001	1.20798E-005	0.00000E+000	3.36800E-001	7.62219E-005	10	...........	0
	171	3.44	3.45237E-001	1.38380E-005	0.00000E+000	3.45800E-001	7.33862E-005	10	...........	0
	180	3.62	3.54266E-001	1.35877E-005	0.00000E+000	3.54800E-001	7.15514E-005	10	...........	0
	189	3.8	3.63241E-001	1.51241E-005	0.00000E+000	3.63800E-001	6.68809E-005	10	...........	0
	198	3.98	3.72179E-001	1.56912E-005	0.00000E+000	3.72800E-001	7.16348E-005	10	...........	0
	207	4.16	3.81254E-001	1.72810E-005	0.00000E+000	3.81800E-001	7.40535E-005	10	...........	0
	216	4.34	3.90205E-001	1.81417E-005	0.00000E+000	3.90800E-001	7.58883E-005	10	...........	0
	225	4.52	3.99219E-001	2.06556E-005	0.00000E+000	3.99800E-001	7.32194E-005	10	...........	0
	234	4.7	4.08350E-001	2.21552E-005	0.00000E+000	4.08800E-001	6.63805E-005	10	...........	0
	243	4.88	4.17173E-001	2.33846E-005	0.00000E+000	4.17800E-001	7.79733E-005	10	...........	0
	252	5.06	4.26220E-001	2.57333E-005	0.00000E+000	4.26800E-001	8.08924E-005	10	...........	0
	261	5.24	4.35211E-001	2.78535E-005	0.00000E+000	4.35800E-001	6.99668E-005	10	...........	0
	270	5.42	4.44165E-001	3.08294E-005	0.00000E+000	4.44800E-001	8.08090E-005	10	...........	0
	279	5.6	4.53197E-001	3.24508E-005	0.00000E+000	4.53800E-001	7.90576E-005	10	...........	0
	288	5.78	4.62168E-001	3.60656E-005	0.00000E+000	4.62800E-001	8.34778E-005	10	...........	0
	297	5.96	4.71167E-001	3.82375E-005	0.00000E+000	4.71800E-001	7.14680E-005	10	...........	0
	306	6.14	4.80323E-001	4.00675E-005	0.00000E+000	4.80800E-001	6.71311E-005	10	...........	0
	315	6.32	4.89078E-001	4.24695E-005	0.00000E+000	4.89800E-001	7.92243E-005	10	...........	0
	324	6.5	4.98135E-001	4.43862E-005	0.00000E+000	4.98800E-001	8.48957E-005	10	...........	0
	333	6.68	5.07145E-001	4.59292E-005	0.00000E+000	5.07800E-001	7.96414E-005	10	...........	0
	342	6.86	5.16123E-001	4.74172E-005	0.00000E+000	5.16800E-001	7.10510E-005	10	...........	0
	351	7.04	5.25131E-001	4.90920E-005	0.00000E+000	5.25800E-001	7.43037E-005	10	...........	0
	360	7.22	5.34117E-001	5.01029E-005	0.00000E+000	5.34800E-001	8.08924E-005	10	...........	0
	369	7.4	5.43087E-001	5.19661E-005	0.00000E+000	5.43800E-001	8.03086E-005	10	...........	0
	378	7.58	5.52235E-001	5.23281E-005	0.00000E+000	5.52800E-001	6.95498E-005	10	...........	0
	387	7.76	5.61022E-001	5.44466E-005	0.00000E+000	5.61800E-001	7.51377E-005	10	...........	0
	396	7.94	5.70083E-001	5.38895E-005	0.00000E+000	5.70800E-001	8.21434E-005	10	...........	0
	405	8.12	5.79043E-001	5.55159E-005	0.00000E+000	5.79800E-001	7.37198E-005	10	...........	0
	414	8.3	5.88072E-001	5.62532E-005	0.00000E+000	5.88800E-001	7.48875E-005	10	...........	0
	423	8.48	5.97130E-001	5.77929E-005	0.00000E+000	5.97800E-001	8.20600E-005	10	...........	0
	432	8.66	6.06006E-001	5.89789E-005	0.00000E+000	6.06800E-001	7.97248E-005	10	...........	0
	441	8.84	6.15000E-001	6.03651E-005	0.00000E+000	6.15800E-001	7.95580E-005	10	...........	0
	450	9.02	6.23999E-001	6.19865E-005	0.00000E+000	6.24800E-001	6.57133E-005	10	...........	0
	459	9.2	6.32962E-001	6.34945E-005	0.00000E+000	6.33800E-001	7.79733E-005	10	...........	0
	468	9.38	6.42002E-001	6.58649E-005	0.00000E+000	6.42800E-001	7.28858E-005	10	...........	0
	477	9.56	6.50948E-001	6.74630E-005	0.00000E+000	6.51800E-001	7.49709E-005	10	...........	0
	486	9.74	6.59980E-001	7.02854E-005	0.00000E+000	6.60800E-001	6.43789E-005	10	...........	0
	495	9.92	6.69127E-001	7.21254E-005	0.00000E+000	6.69800E-001	7.32194E-005	10	...........	0
	504	10.1	6.77929E-001	7.35967E-005	0.00000E+000	6.78800E-001	7.05506E-005	10	...........	0
	513	10.28	6.86994E-001	7.39653E-005	0.00000E+000	6.87800E-001	7.97248E-005	10	...........	0
	522	10.46	6.95929E-001	7.45692E-005	0.00000E+000	6.96800E-001	6.91328E-005	10	...........	0
	531	10.64	7.04939E-001	7.32947E-005	0.00000E+000	7.05800E-001	7.19684E-005	10	...........	0
	540	10.82	7.13987E-001	7.35066E-005	0.00000E+000	7.14800E-001	6.71311E-005	10	...........	0
	549	11	7.22911E-001	7.28143E-005	0.00000E+000	7.23800E-001	8.20600E-005	10	...........	0
	558	11.18	7.31925E-001	7.31179E-005	0.00000E+000	7.32800E-001	7.13012E-005	10	...........	0
	567	11.36	7.41030E-001	7.32730E-005	0.00000E+000	7.41800E-001	7.67223E-005	10	...........	0
	576	11.54	7.49864E-001	7.45074E-005	0.00000E+000	7.50800E-001	7.02170E-005	10	...........	0
	585	11.72	7.58918E-001	7.57635E-005	0.00000E+000	7.59800E-001	7.77231E-005	10	...........	0
	594	11.9	7.67882E-001	7.66076E-005	0.00000E+000	7.68800E-001	7.18016E-005	10	...........	0
	603	12.08	7.76903E-001	7.82707E-005	0.00000E+000	7.77800E-001	7.42203E-005	10	...........	0
	612	12.26	7.85940E-001	7.90047E-005	0.00000E+000	7.86800E-001	7.25522E-005	10	...........	0
	621	12.44	7.94876E-001	8.15135E-005	0.00000E+000	7.95800E-001	8.35612E-005	10	...........	0
	630	12.62	7.93983E-001	6.78567E-005	0.00000E+000	7.94800E-001	7.68891E-005	10	...........	0
	639	12.8	7.84919E-001	5.49120E-005	0.00000E+000	7.85800E-001	7.43037E-005	10	...........	0
	648	12.98	7.75923E-001	4.44896E-005	0.00000E+000	7.76800E-001	7.46373E-005	10	...........	0
	657	13.16	7.66927E-001	3.71950E-005	0.00000E+000	7.67800E-001	8.34778E-005	10	...........	0
	666	13.34	7.57840E-001	3.18036E-005	0.00000E+000	7.58800E-001	7.89741E-005	10	...........	0
	675	13.52	7.48962E-001	2.81671E-005	0.00000E+000	7.49800E-001	7.79733E-005	10	...........	0
	684	13.7	7.39956E-001	2.49426E-005	0.00000E+000	7.40800E-001	7.37198E-005	10	...........	0
	693	13.88	7.30933E-001	2.16164E-005	0.00000E+000	7.31800E-001	7.86405E-005	10	...........	0
	702	14.06	7.21976E-001	1.91326E-005	0.00000E+000	7.22800E-001	6.99668E-005	10	...........	0
	711	14.24	7.12965E-001	1.73110E-005	0.00000E+000	7.13800E-001	7.46373E-005	10	...........	0
	720	14.42	7.03936E-001	1.57496E-005	0.00000E+000	7.04800E-001	7.66389E-005	10	...........	0
	729	14.6	6.94976E-001	1.37212E-005	0.00000E+000	6.95800E-001	8.53961E-005	10	...........	0
	738	14.78	6.85919E-001	1.29689E-005	0.00000E+000	6.86800E-001	8.06422E-005	10	...........	0
	747	14.96	6.76991E-001	1.16410E-005	0.00000E+000	6.77800E-001	8.59799E-005	10	...........	0
	756	15.14	6.68000E-001	1.08971E-005	0.00000E+000	6.68800E-001	7.91409E-005	10	...........	0
	765	15.32	6.58979E-001	9.22561E-006	0.00000E+000	6.59800E-001	8.23936E-005	10	...........	0
	774	15.5	6.50001E-001	9.60093E-006	0.00000E+000	6.50800E-001	7.90576E-005	10	...........	0
	783	15.68	6.40980E-001	8.54335E-006	0.00000E+000	6.41800E-001	7.84737E-005	10	...........	0
	792	15.86	6.32020E-001	8.18637E-006	0.00000E+000	6.32800E-001	7.54713E-005	10	...........	0
	801	16.04	6.23043E-001	7.41236E-006	0.00000E+000	6.23800E-001	7.83069E-005	10	...........	0
	810	16.22	6.14034E-001	6.49990E-006	0.00000E+000	6.14800E-001	7.98916E-005	10	...........	0
	819	16.4	6.05167E-001	6.69674E-006	0.00000E+000	6.05800E-001	7.43037E-005	10	...........	0
	828	16.58	5.96052E-001	5.30553E-006	0.00000E+000	5.96800E-001	7.83903E-005	10	...........	0
	837	16.76	5.87081E-001	5.38726E-006	0.00000E+000	5.87800E-001	7.87239E-005	10	...........	0
	846	16.94	5.78099E-001	4.32301E-006	0.00000E+000	5.78800E-001	7.68057E-005	10	...........	0
	855	17.12	5.69046E-001	4.32301E-006	0.00000E+000	5.69800E-001	7.42203E-005	10	...........	0
	864	17.3	5.60170E-001	3.71081E-006	0.00000E+000	5.60800E-001	7.29692E-005	10	...........	0
	873	17.48	5.51041E-001	3.78087E-006	0.00000E+000	5.51800E-001	7.13846E-005	10	...........	0
	882	17.66	5.42092E-001	2.87341E-006	0.00000E+000	5.42800E-001	7.94746E-005	10	...........	0
	891	17.84	5.33190E-001	2.84338E-006	0.00000E+000	5.33800E-001	7.35530E-005	10	...........	0
	900	18.02	5.24104E-001	2.84672E-006	0.00000E+000	5.24800E-001	7.48875E-005	10	...........	0
	909	18.2	5.15127E-001	2.48140E-006	0.00000E+000	5.15800E-001	7.37198E-005	10	...........	0
	918	18.38	5.06160E-001	2.39466E-006	0.00000E+000	5.06800E-001	8.13928E-005	10	...........	0
	927	18.56	4.97122E-001	2.08272E-006	0.00000E+000	4.97800E-001	7.83069E-005	10	...........	0
	936	18.74	4.88295E-001	2.15945E-006	0.00000E+000	4.88800E-001	7.08842E-005	10	...........	0
	945	18.92	4.79178E-001	1.82416E-006	0.00000E+000	4.79800E-001	7.68891E-005	10	...........	0
	954	19.1	4.70171E-001	1.72074E-006	0.00000E+000	4.70800E-001	8.06422E-005	10	...........	0
	963	19.28	4.61198E-001	7.58235E-007	0.00000E+000	4.61800E-001	8.10592E-005	10	...........	0
	972	19.46	4.52170E-001	1.55059E-006	0.00000E+000	4.52800E-001	8.43118E-005	10	...........	0
	981	19.64	4.43177E-001	3.44541E-007	0.00000E+000	4.43800E-001	7.84737E-005	10	...........	0
	990	19.82	4.34220E-001	8.95021E-007	0.00000E+000	4.34800E-001	8.47289E-005	10	...........	0
	999	20	4.25087E-001	-2.60986E-007	0.00000E+000	4.25800E-001	8.24770E-005	10	...........	0
	1008	20.18	4.16274E-001	3.92917E-007	0.00000E+000	4.16800E-001	7.27190E-005	10	...........	0
	1017	20.36	4.07266E-001	-1.67571E-007	0.00000E+000	4.07800E-001	7.23020E-005	10	...........	0
	1026	20.54	3.98182E-001	-7.13046E-007	0.00000E+000	3.98800E-001	7.37198E-005	10	...........	0
	1035	20.72	3.89253E-001	-6.49658E-007	0.00000E+000	3.89800E-001	8.26438E-005	10	...........	0
	1044	20.9	3.80210E-001	-1.53042E-006	0.00000E+000	3.80800E-001	7.79733E-005	10	...........	0
	1053	21.08	3.71266E-001	-2.77151E-006	0.00000E+000	3.71800E-001	7.66389E-005	10	...........	0
	1062	21.26	3.62306E-001	-2.67475E-006	0.00000E+000	3.62800E-001	6.92996E-005	10	...........	0
	1071	21.44	3.53240E-001	-3.45543E-006	0.00000E+000	3.53800E-001	7.66389E-005	10	...........	0
	1080	21.62	3.44302E-001	-4.25113E-006	0.00000E+000	3.44800E-001	7.59717E-005	10	...........	0
	1089	21.8	3.35281E-001	-3.73401E-006	0.00000E+000	3.35800E-001	7.02170E-005	10	...........	0
	1098	21.98	3.26285E-001	-4.53804E-006	0.00000E+000	3.26800E-001	6.67141E-005	10	...........	0
	1107	22.16	3.17298E-001	-4.89335E-006	0.00000E+000	3.17800E-001	7.90576E-005	10	...........	0
	1116	22.34	3.08229E-001	-5.95928E-006	0.00000E+000	3.08800E-001	8.09758E-005	10	...........	0
	1125	22.52	2.99380E-001	-5.22364E-006	0.00000E+000	2.99800E-001	7.08842E-005	10	...........	0
	1134	22.7	2.90324E-001	-7.39386E-006	0.00000E+000	2.90800E-001	7.45539E-005	10	...........	0
	1143	22.88	2.81336E-001	-7.03522E-006	0.00000E+000	2.81800E-001	7.84737E-005	10	...........	0
	1152	23.06	2.72394E-001	-8.03108E-006	0.00000E+000	2.72800E-001	7.98916E-005	10	...........	0
	1161	23.24	2.63336E-001	-8.92686E-006	0.00000E+000	2.63800E-001	7.88907E-005	10	...........	0
	1170	23.42	2.54353E-001	-9.81263E-006	0.00000E+000	2.54800E-001	7.09676E-005	10	...........	0
	1179	23.6	2.45364E-001	-1.06534E-005	0.00000E+000	2.45800E-001	7.68891E-005	10	...........	0
	1188	23.78	2.36316E-001	-1.18778E-005	0.00000E+000	2.36800E-001	7.85571E-005	10	...........	0
	1197	23.96	2.27524E-001	-1.28636E-005	0.00000E+000	2.27800E-001	7.14680E-005	10	...........	0
	1206	24.14	2.18310E-001	-1.33691E-005	0.00000E+000	2.18800E-001	6.76315E-005	10	...........	0
	1215	24.32	2.09370E-001	-1.51640E-005	0.00000E+000	2.09800E-001	7.91409E-005	10	...........	0
	1224	24.5	2.00427E-001	-1.51806E-005	0.00000E+000	2.00800E-001	7.78065E-005	10	...........	0
	1233	24.68	1.91390E-001	-1.67370E-005	0.00000E+000	1.91800E-001	8.18098E-005	10	...........	0
	1242	24.86	1.82420E-001	-1.82850E-005	0.00000E+000	1.82800E-001	7.43871E-005	10	...........	0
	1251	25.04	1.73450E-001	-2.00115E-005	0.00000E+000	1.73800E-001	7.44705E-005	10	...........	0
	1260	25.22	1.64415E-001	-2.16146E-005	0.00000E+000	1.64800E-001	7.47207E-005	10	...........	0
	1269	25.4	1.55571E-001	-2.41868E-005	0.00000E+000	1.55800E-001	7.27190E-005	10	...........	0
	1278	25.58	1.46466E-001	-2.60051E-005	0.00000E+000	1.46800E-001	7.84737E-005	10	...........	0
	1287	25.76	1.37431E-001	-2.82587E-005	0.00000E+000	1.37800E-001	8.02252E-005	10	...........	0
	1296	25.94	1.28456E-001	-3.21504E-005	0.00000E+000	1.28800E-001	7.83903E-005	10	...........	0
	1305	26.12	1.19403E-001	-3.29494E-005	0.00000E+000	1.19800E-001	7.78065E-005	10	...........	0
	1314	26.3	1.10488E-001	-3.64675E-005	0.00000E+000	1.10800E-001	7.83069E-005	10	...........	0
	1323	26.48	1.01541E-001	-3.73750E-005	0.00000E+000	1.01800E-001	7.00502E-005	10	...........	0
	1332	26.66	9.24537E-002	-4.16387E-005	0.00000E+000	9.28000E-002	8.01418E-005	10	...........	0
	1341	26.84	8.35711E-002	-4.32768E-005	0.00000E+000	8.38000E-002	7.45539E-005	10	...........	0
	1350	27.02	7.45312E-002	-4.67681E-005	0.00000E+000	7.48000E-002	8.06422E-005	10	...........	0
	1359	27.2	6.56071E-002	-4.93754E-005	0.00000E+000	6.58000E-002	7.64721E-005	10	...........	0
	1368	27.38	5.65431E-002	-5.15907E-005	0.00000E+000	5.68000E-002	8.15596E-005	10	...........	0
	1377	27.56	4.74547E-002	-5.50287E-005	0.00000E+000	4.78000E-002	7.98916E-005	10	...........	0
	1386	27.74	3.85706E-002	-5.78444E-005	0.00000E+000	3.88000E-002	7.31360E-005	10	...........	0
	1395	27.92	2.95708E-002	-6.15977E-005	0.00000E+000	2.98000E-002	7.18016E-005	10	...........	0
	1404	28.1	2.05694E-002	-6.48322E-005	0.00000E+000	2.08000E-002	8.70641E-005	10	...........	0
	1413	28.28	1.15400E-002	-6.83253E-005	0.00000E+000	1.18000E-002	8.11426E-005	10	...........	0
	1422	28.46	2.54131E-003	-6.99917E-005	0.00000E+000	2.80000E-003	7.52211E-005	10	...........	0
	1431	28.64	-6.32703E-003	-7.39535E-005	0.00000E+000	-6.19999E-003	7.42203E-005	10	...........	0
	1440	28.82	-1.53930E-002	-7.47725E-005	0.00000E+000	-1.52000E-002	8.35612E-005	10	...........	0
	1449	29	-2.44082E-002	-7.75967E-005	0.00000E+000	-2.42000E-002	8.26438E-005	10	...........	0
	1458	29.18	-3.33392E-002	-7.84908E-005	0.00000E+000	-3.32000E-002	7.94746E-005	10	...........	0
	1467	29.36	-4.23763E-002	-7.95634E-005	0.00000E+000	-4.22000E-002	7.82235E-005	10	...........	0
	1476	29.54	-5.13813E-002	-8.04742E-005	0.00000E+000	-5.12000E-002	7.89741E-005	10	...........	0
	1485	29.72	-6.03463E-002	-8.04008E-005	0.00000E+000	-6.02000E-002	7.86405E-005	10	...........	0
	1494	29.9	-6.93550E-002	-7.97068E-005	0.00000E+000	-6.92000E-002	7.71393E-005	10	...........	0
	1503	30.08	-7.83153E-002	-7.85992E-005	0.00000E+000	-7.82000E-002	7.35530E-005	10	...........	0
	1512	30.26	-8.73326E-002	-7.77985E-005	0.00000E+000	-8.72000E-002	8.12260E-005	10	...........	0
	1521	30.44	-9.63548E-002	-7.55215E-005	0.00000E+000	-9.62000E-002	7.93912E-005	10	...........	0
	1530	30.62	-1.05234E-001	-7.48776E-005	0.00000E+000	-1.05200E-001	7.49709E-005	10	...........	0
	1539	30.8	-1.14304E-001	-7.19668E-005	0.00000E+000	-1.14200E-001	7.20518E-005	10	...........	0
	1548	30.98	-1.23339E-001	-7.09876E-005	0.00000E+000	-1.23200E-001	7.38032E-005	10	...........	0
	1557	31.16	-1.32255E-001	-6.84737E-005	0.00000E+000	-1.32200E-001	7.63053E-005	10	...........	0
	1566	31.34	-1.41304E-001	-6.75295E-005	0.00000E+000	-1.41200E-001	7.41369E-005	10	...........	0
	1575	31.52	-1.50195E-001	-6.55545E-005	0.00000E+000	-1.50200E-001	8.21434E-005	10	...........	0
	1584	31.7	-1.59258E-001	-6.41166E-005	0.00000E+000	-1.59200E-001	6.79651E-005	10	...........	0
	1593	31.88	-1.68297E-001	-6.24284E-005	0.00000E+000	-1.68200E-001	8.44786E-005	10	...........	0
	1602	32.06	-1.77202E-001	-6.16277E-005	0.00000E+000	-1.77200E-001	8.18932E-005	10	...........	0
	1611	32.24	-1.86230E-001	-6.09205E-005	0.00000E+000	-1.86200E-001	8.55629E-005	10	...........	0
	1620	32.42	-1.95267E-001	-5.93374E-005	0.00000E+000	-1.95200E-001	7.03838E-005	10	...........	0
	1629	32.6	-2.04236E-001	-5.95726E-005	0.00000E+000	-2.04200E-001	9.39864E-005	10	...........	0
	1638	32.78	-2.13284E-001	-5.82865E-005	0.00000E+000	-2.13200E-001	7.98082E-005	10	...........	0
	1647	32.96	-2.22156E-001	-5.84250E-005	0.00000E+000	-2.22200E-001	8.03920E-005	10	...........	0
	1656	33.14	-2.31180E-001	-5.71388E-005	0.00000E+000	-2.31200E-001	7.73061E-005	10	...........	0
	1665	33.32	-2.40232E-001	-5.68402E-005	0.00000E+000	-2.40200E-001	8.23936E-005	10	...........	0
	1674	33.5	-2.49174E-001	-5.53356E-005	0.00000E+000	-2.49200E-001	8.09758E-005	10	...........	0
	1683	33.68	-2.58199E-001	-5.51054E-005	0.00000E+000	-2.58200E-001	8.28106E-005	10	...........	0
	1692	33.86	-2.67124E-001	-5.48452E-005	0.00000E+000	-2.67200E-001	7.37198E-005	10	...........	0
	1701	34.04	-2.76167E-001	-5.50003E-005	0.00000E+000	-2.76200E-001	8.18098E-005	10	...........	0
	1710	34.22	-2.85173E-001	-5.53273E-005	0.00000E+000	-2.85200E-001	8.71475E-005	10	...........	0
	1719	34.4	-2.94145E-001	-5.45549E-005	0.00000E+000	-2.94200E-001	7.81401E-005	10	...........	0
	1728	34.58	-3.03136E-001	-5.52989E-005	0.00000E+000	-3.03200E-001	7.04672E-005	10	...........	0
	1737	34.76	-3.12127E-001	-5.43297E-005	0.00000E+000	-3.12200E-001	7.57215E-005	10	...........	0
	1746	34.94	-3.21138E-001	-5.46633E-005	0.00000E+000	-3.21200E-001	8.20600E-005	10	...........	0
	1755	35.12	-3.30136E-001	-5.36775E-005	0.00000E+000	-3.30200E-001	7.88073E-005	10	...........	0
	1764	35.3	-3.39001E-001	-5.42680E-005	0.00000E+000	-3.39200E-001	7.67223E-005	10	...........	0
	1773	35.48	-3.48096E-001	-5.33339E-005	0.00000E+000	-3.48200E-001	7.57215E-005	10	...........	0
	1782	35.66	-3.57110E-001	-5.50587E-005	0.00000E+000	-3.57200E-001	8.83985E-005	10	...........	0
	1791	35.84	-3.66053E-001	-5.43397E-005	0.00000E+000	-3.66200E-001	8.01418E-005	10	...........	0
	1800	36.02	-3.75087E-001	-5.55691E-005	0.00000E+000	-3.75200E-001	8.08924E-005	10	...........	0
	1809	36.2	-3.84056E-001	-5.59078E-005	0.00000E+000	-3.84200E-001	7.66389E-005	10	...........	0
	1818	36.38	-3.93013E-001	-5.69887E-005	0.00000E+000	-3.93200E-001	8.50625E-005	10	...........	0
	1827	36.56	-4.02088E-001	-5.85818E-005	0.00000E+000	-4.02200E-001	7.68057E-005	10	...........	0
	1836	36.74	-4.10950E-001	-6.04400E-005	0.00000E+000	-4.11200E-001	7.67223E-005	10	...........	0
	1845	36.92	-4.20036E-001	-6.31257E-005	0.00000E+000	-4.20200E-001	6.80485E-005	10	...........	0
	1854	37.1	-4.29042E-001	-6.52909E-005	0.00000E+000	-4.29200E-001	8.27272E-005	10	...........	0
	1863	37.28	-4.37962E-001	-6.92194E-005	0.00000E+000	-4.38200E-001	8.18932E-005	10	...........	0
	1872	37.46	-4.47033E-001	-6.94529E-005	0.00000E+000	-4.47200E-001	7.53045E-005	10	...........	0
	1881	37.64	-4.56015E-001	-7.59285E-005	0.00000E+000	-4.56200E-001	7.19684E-005	10	...........	0
	1890	37.82	-4.64973E-001	-7.72580E-005	0.00000E+000	-4.65200E-001	8.77313E-005	10	...........	0
	1899	38	-4.74036E-001	-8.42124E-005	0.00000E+000	-4.74200E-001	7.89741E-005	10	...........	0
	1908	38.18	-4.82880E-001	-8.67897E-005	0.00000E+000	-4.83200E-001	8.12260E-005	10	...........	0
	1917	38.36	-4.91967E-001	-9.28699E-005	0.00000E+000	-4.92200E-001	7.19684E-005	10	...........	0
	1926	38.54	-4.98777E-001	-7.51028E-005	0.00000E+000	-4.99000E-001	7.37198E-005	10	...........	1
	1935	38.72	-4.89797E-001	-5.65366E-005	0.00000E+000	-4.90000E-001	7.86405E-005	10	...........	1
	1944	38.9	-4.80809E-001	-4.80176E-005	0.00000E+000	-4.81000E-001	8.10592E-005	10	...........	1
	1953	39.08	-4.71696E-001	-4.07245E-005	0.00000E+000	-4.72000E-001	7.02170E-005	10	...........	1
	1962	39.26	-4.62850E-001	-3.92783E-005	0.00000E+000	-4.63000E-001	8.00584E-005	10	...........	1
	1971	39.44	-4.53804E-001	-3.29545E-005	0.00000E+000	-4.54000E-001	8.34778E-005	10	...........	1
	1980	39.62	-4.44791E-001	-3.43623E-005	0.00000E+000	-4.45000E-001	7.18850E-005	10	...........	1
	1989	39.8	-4.35830E-001	-2.97917E-005	0.00000E+000	-4.36000E-001	7.91409E-005	10	...........	1
	1998	39.98	-4.26831E-001	-3.09310E-005	0.00000E+000	-4.27000E-001	7.96414E-005	10	...........	1
	2007	40.16	-4.17854E-001	-2.92913E-005	0.00000E+000	-4.18000E-001	8.64803E-005	10	...........	1
	2016	40.34	-4.08885E-001	-2.94514E-005	0.00000E+000	-4.09000E-001	7.94746E-005	10	...........	1
	2025	40.52	-3.99870E-001	-2.82670E-005	0.00000E+000	-4.00000E-001	7.82235E-005	10	...........	1
	2034	40.7	-3.90940E-001	-2.92095E-005	0.00000E+000	-3.91000E-001	7.48041E-005	10	...........	1
	2043	40.88	-3.81879E-001	-2.93513E-005	0.00000E+000	-3.82000E-001	8.14762E-005	10	...........	1
	2052	41.06	-3.72942E-001	-2.92979E-005	0.00000E+000	-3.73000E-001	7.93912E-005	10	...........	1
	2061	41.24	-3.63901E-001	-2.89359E-005	0.00000E+000	-3.64000E-001	7.62219E-005	10	...........	1
	2070	41.42	-3.54839E-001	-2.84355E-005	0.00000E+000	-3.55000E-001	8.64803E-005	10	...........	1
	2079	41.6	-3.45938E-001	-2.93330E-005	0.00000E+000	-3.46000E-001	8.19766E-005	10	...........	1
	2088	41.78	-3.36882E-001	-2.85006E-005	0.00000E+000	-3.37000E-001	7.73061E-005	10	...........	1
	2097	41.96	-3.27927E-001	-2.89293E-005	0.00000E+000	-3.28000E-001	7.09676E-005	10	...........	1
	2106	42.14	-3.19012E-001	-2.76832E-005	0.00000E+000	-3.19000E-001	7.45539E-005	10	...........	1
	2115	42.32	-3.09929E-001	-2.78967E-005	0.00000E+000	-3.10000E-001	8.18932E-005	10	...........	1
	2124	42.5	-3.00983E-001	-2.66706E-005	0.00000E+000	-3.01000E-001	8.27272E-005	10	...........	1
	2133	42.68	-2.91963E-001	-2.63120E-005	0.00000E+000	-2.92000E-001	7.67223E-005	10	...........	1
	2142	42.86	-2.82870E-001	-2.58816E-005	0.00000E+000	-2.83000E-001	8.73977E-005	10	...........	1
	2151	43.04	-2.74007E-001	-2.61118E-005	0.00000E+000	-2.74000E-001	9.04002E-005	10	...........	1
	2160	43.22	-2.64976E-001	-2.51260E-005	0.00000E+000	-2.65000E-001	8.62301E-005	10	...........	1
	2169	43.4	-2.55990E-001	-2.48324E-005	0.00000E+000	-2.56000E-001	8.36446E-005	10	...........	1
	2178	43.58	-2.47020E-001	-2.47823E-005	0.00000E+000	-2.47000E-001	8.28940E-005	10	...........	1
	2187	43.76	-2.37968E-001	-2.42035E-005	0.00000E+000	-2.38000E-001	8.34778E-005	10	...........	1
	2196	43.94	-2.29035E-001	-2.40150E-005	0.00000E+000	-2.29000E-001	8.66471E-005	10	...........	1
	2205	44.12	-2.20034E-001	-2.27339E-005	0.00000E+000	-2.20000E-001	7.84737E-005	10	...........	1
	2214	44.3	-2.10911E-001	-2.31659E-005	0.00000E+000	-2.11000E-001	7.67223E-005	10	...........	1
	2223	44.48	-2.02102E-001	-2.21717E-005	0.00000E+000	-2.02000E-001	7.93912E-005	10	...........	1
	2232	44.66	-1.93075E-001	-2.14828E-005	0.00000E+000	-1.93000E-001	8.53961E-005	10	...........	1
	2241	44.84	-1.84031E-001	-2.06537E-005	0.00000E+000	-1.84000E-001	7.31360E-005	10	...........	1
	2250	45.02	-1.75061E-001	-2.02951E-005	0.00000E+000	-1.75000E-001	8.54795E-005	10	...........	1
	2259	45.2	-1.66080E-001	-1.97596E-005	0.00000E+000	-1.66000E-001	8.75645E-005	10	...........	1
	2268	45.38	-1.57104E-001	-1.93743E-005	0.00000E+000	-1.57000E-001	8.49791E-005	10	...........	1
	2277	45.56	-1.48090E-001	-1.89106E-005	0.00000E+000	-1.48000E-001	8.17264E-005	10	...........	1
	2286	45.74	-1.39007E-001	-1.87321E-005	0.00000E+000	-1.39000E-001	7.42203E-005	10	...........	1
	2295	45.92	-1.30129E-001	-1.72241E-005	0.00000E+000	-1.30000E-001	8.33944E-005	10	...........	1
	2304	46.1	-1.21112E-001	-1.70606E-005	0.00000E+000	-1.21000E-001	8.58131E-005	10	...........	1
	2313	46.28	-1.12187E-001	-1.68354E-005	0.00000E+000	-1.12000E-001	7.53045E-005	10	...........	1
	2322	46.46	-1.03114E-001	-1.52490E-005	0.00000E+000	-1.03000E-001	7.51377E-005	10	...........	1
	2331	46.64	-9.41137E-002	-1.49338E-005	0.00000E+000	-9.40000E-002	7.90576E-005	10	...........	1
	2340	46.82	-8.51488E-002	-1.39162E-005	0.00000E+000	-8.50000E-002	8.40616E-005	10	...........	1
	2349	47	-7.61656E-002	-1.41114E-005	0.00000E+000	-7.60000E-002	8.37280E-005	10	...........	1
	2358	47.18	-6.71772E-002	-1.33841E-005	0.00000E+000	-6.70000E-002	7.75563E-005	10	...........	1
	2367	47.36	-5.82178E-002	-1.25734E-005	0.00000E+000	-5.80000E-002	8.53961E-005	10	...........	1
	2376	47.54	-4.91557E-002	-1.16826E-005	0.00000E+000	-4.90000E-002	7.69725E-005	10	...........	1
	2385	47.72	-4.02157E-002	-1.14040E-005	0.00000E+000	-4.00000E-002	8.21434E-005	10	...........	1
	2394	47.9	-3.11698E-002	-1.08919E-005	0.00000E+000	-3.10000E-002	8.56463E-005	10	...........	1
	2403	48.08	-2.20799E-002	-9.49403E-006	0.00000E+000	-2.20000E-002	8.20600E-005	10	...........	1
	2412	48.26	-1.32354E-002	-9.39894E-006	0.00000E+000	-1.30000E-002	8.54795E-005	10	...........	1
	2421	48.44	-4.18587E-003	-7.87762E-006	0.00000E+000	-3.99999E-003	8.01418E-005	10	...........	1
	2430	48.62	4.68998E-003	-7.60405E-006	0.00000E+000	5.00001E-003	7.99750E-005	10	...........	1
	2439	48.8	1.36941E-002	-6.97683E-006	0.00000E+000	1.40000E-002	8.08924E-005	10	...........	1
	2448	48.98	2.27895E-002	-6.19615E-006	0.00000E+000	2.30000E-002	8.26438E-005	10	...........	1
	2457	49.16	3.17157E-002	-5.28036E-006	0.00000E+000	3.20000E-002	8.55629E-005	10	...........	1
	2466	49.34	4.07187E-002	-4.27281E-006	0.00000E+000	4.10000E-002	7.82235E-005	10	...........	1
	2475	49.52	4.97690E-002	-3.47378E-006	0.00000E+000	5.00000E-002	8.33944E-005	10	...........	1
	2484	49.7	5.86806E-002	-2.75649E-006	0.00000E+000	5.90000E-002	8.02252E-005	10	...........	1
	2493	49.88	6.77213E-002	-1.91242E-006	0.00000E+000	6.80000E-002	7.95580E-005	10	...........	1
	2502	50.06	7.67113E-002	-1.67388E-006	0.00000E+000	7.70000E-002	7.66389E-005	10	...........	1
	2511	50.24	8.57050E-002	-8.06461E-007	0.00000E+000	8.60000E-002	7.96414E-005	10	...........	1
	2520	50.42	9.47034E-002	4.92842E-008	0.00000E+000	9.50000E-002	7.37198E-005	10	...........	1
	2529	50.6	1.03643E-001	7.93265E-007	0.00000E+000	1.04000E-001	8.92325E-005	10	...........	1
	2538	50.78	1.12657E-001	1.37544E-006	0.00000E+000	1.13000E-001	8.43953E-005	10	...........	1
	2547	50.96	1.21756E-001	1.90924E-006	0.00000E+000	1.22000E-001	7.81401E-005	10	...........	1
	2556	51.14	1.30599E-001	3.32380E-006	0.00000E+000	1.31000E-001	9.07338E-005	10	...........	1
	2565	51.32	1.39632E-001	3.24373E-006	0.00000E+000	1.40000E-001	7.83903E-005	10	...........	1
	2574	51.5	1.48641E-001	4.06945E-006	0.00000E+000	1.49000E-001	8.48957E-005	10	...........	1
	2583	51.68	1.57623E-001	4.80176E-006	0.00000E+000	1.58000E-001	7.92243E-005	10	...........	1
	2592	51.86	1.66658E-001	5.59411E-006	0.00000E+000	1.67000E-001	8.80649E-005	10	...........	1
	2601	52.04	1.75589E-001	6.01781E-006	0.00000E+000	1.76000E-001	8.93993E-005	10	...........	1
	2610	52.22	1.84604E-001	6.90025E-006	0.00000E+000	1.85000E-001	8.78981E-005	10	...........	1
	2619	52.4	1.93698E-001	8.05792E-006	0.00000E+000	1.94000E-001	8.28940E-005	10	...........	1
	2628	52.58	2.02571E-001	8.39655E-006	0.00000E+000	2.03000E-001	8.65637E-005	10	...........	1
	2637	52.76	2.11582E-001	9.33403E-006	0.00000E+000	2.12000E-001	8.28106E-005	10	...........	1
	2646	52.94	2.20537E-001	9.58092E-006	0.00000E+000	2.21000E-001	9.44868E-005	10	...........	1
	2655	53.12	2.29571E-001	1.07870E-005	0.00000E+000	2.30000E-001	7.57215E-005	10	...........	1
	2664	53.3	2.38618E-001	1.13424E-005	0.00000E+000	2.39000E-001	8.08924E-005	10	...........	1
	2673	53.48	2.47412E-001	1.24134E-005	0.00000E+000	2.48000E-001	8.14762E-005	10	...........	1
	2682	53.66	2.56536E-001	1.28821E-005	0.00000E+000	2.57000E-001	8.44786E-005	10	...........	1
	2691	53.84	2.65527E-001	1.35243E-005	0.00000E+000	2.66000E-001	7.31360E-005	10	...........	1
	2700	54.02	2.74531E-001	1.42099E-005	0.00000E+000	2.75000E-001	8.78147E-005	10	...........	1
	2709	54.2	2.83572E-001	1.46170E-005	0.00000E+000	2.84000E-001	8.43953E-005	10	...........	1
	2718	54.38	2.92481E-001	1.63435E-005	0.00000E+000	2.93000E-001	8.59799E-005	10	...........	1
	2727	54.56	3.01519E-001	1.62784E-005	0.00000E+000	3.02000E-001	7.96414E-005	10	...........	1
	2736	54.74	3.10537E-001	1.75929E-005	0.00000E+000	3.11000E-001	7.58883E-005	10	...........	1
	2745	54.92	3.19443E-001	1.80516E-005	0.00000E+000	3.20000E-001	7.59717E-005	10	...........	1
	2754	55.1	3.28483E-001	1.91960E-005	0.00000E+000	3.29000E-001	8.90657E-005	10	...........	1
	2763	55.28	3.37426E-001	2.00801E-005	0.00000E+000	3.38000E-001	9.20682E-005	10	...........	1
	2772	55.46	3.46451E-001	2.18649E-005	0.00000E+000	3.47000E-001	7.51377E-005	10	...........	1
	2781	55.64	3.55558E-001	2.34814E-005	0.00000E+000	3.56000E-001	8.29774E-005	10	...........	1
	2790	55.82	3.64436E-001	2.40418E-005	0.00000E+000	3.65000E-001	8.50625E-005	10	...........	1
	2799	56	3.73446E-001	2.63622E-005	0.00000E+000	3.74000E-001	8.43953E-005	10	...........	1
	2808	56.18	3.82474E-001	2.86175E-005	0.00000E+000	3.83000E-001	7.57215E-005	10	...........	1
	2817	56.36	3.91395E-001	3.22273E-005	0.00000E+000	3.92000E-001	8.33110E-005	10	...........	1
	2826	56.54	4.00436E-001	3.47095E-005	0.00000E+000	4.01000E-001	8.59799E-005	10	...........	1
	2835	56.72	4.09434E-001	3.91800E-005	0.00000E+000	4.10000E-001	8.82317E-005	10	...........	1
	2844	56.9	4.18386E-001	4.24929E-005	0.00000E+000	4.19000E-001	8.18098E-005	10	...........	1
	2853	57.08	4.27507E-001	4.68450E-005	0.00000E+000	4.28000E-001	8.62301E-005	10	...........	1
	2862	57.26	4.36295E-001	5.08819E-005	0.00000E+000	4.37000E-001	9.16512E-005	10	...........	1
	2871	57.44	4.45366E-001	5.48637E-005	0.00000E+000	4.46000E-001	9.44034E-005	10	...........	1
	2880	57.62	4.54406E-001	5.77629E-005	0.00000E+000	4.55000E-001	8.28940E-005	10	...........	1
	2889	57.8	4.63352E-001	6.02467E-005	0.00000E+000	4.64000E-001	8.66471E-005	10	...........	1
	2898	57.98	4.72381E-001	6.21300E-005	0.00000E+000	4.73000E-001	8.32276E-005	10	...........	1
	2907	58.16	4.81362E-001	6.36163E-005	0.00000E+000	4.82000E-001	9.35694E-005	10	...........	1
	2916	58.34	4.90346E-001	6.44470E-005	0.00000E+000	4.91000E-001	7.88907E-005	10	...........	1
	2925	58.52	4.99351E-001	6.40033E-005	0.00000E+000	5.00000E-001	8.53961E-005	10	...........	1
	2934	58.7	5.08257E-001	6.43336E-005	0.00000E+000	5.09000E-001	7.50543E-005	10	...........	1
	2943	58.88	5.17336E-001	6.24019E-005	0.00000E+000	5.18000E-001	8.56463E-005	10	...........	1
	2952	59.06	5.26382E-001	6.12592E-005	0.00000E+000	5.27000E-001	7.73061E-005	10	...........	1
	2961	59.24	5.35304E-001	5.97229E-005	0.00000E+000	5.36000E-001	7.88907E-005	10	...........	1
	2970	59.42	5.44356E-001	5.95211E-005	0.00000E+000	5.45000E-001	7.78065E-005	10	...........	1
	2979	59.6	5.53263E-001	5.74593E-005	0.00000E+000	5.54000E-001	8.14762E-005	10	...........	1
	2988	59.78	5.62313E-001	5.77495E-005	0.00000E+000	5.63000E-001	8.09758E-005	10	...........	1
	2997	59.96	5.71291E-001	5.64734E-005	0.00000E+000	5.72000E-001	7.87239E-005	10	...........	1
	3006	60.14	5.80180E-001	5.66052E-005	0.00000E+000	5.81000E-001	8.08090E-005	10	...........	1
	3015	60.32	5.89243E-001	5.61815E-005	0.00000E+000	5.90000E-001	8.54795E-005	10	...........	1
	3024	60.5	5.98223E-001	5.55893E-005	0.00000E+000	5.99000E-001	8.58131E-005	10	...........	1
	3033	60.68	6.07237E-001	5.64017E-005	0.00000E+000	6.08000E-001	7.29692E-005	10	...........	1
	3042	60.86	6.16341E-001	5.64467E-005	0.00000E+000	6.17000E-001	7.94746E-005	10	...........	1
	3051	61.04	6.25212E-001	5.70322E-005	0.00000E+000	6.26000E-001	8.47289E-005	10	...........	1
	3060	61.22	6.34227E-001	5.67587E-005	0.00000E+000	6.35000E-001	9.48205E-005	10	...........	1
	3069	61.4	6.43201E-001	5.77879E-005	0.00000E+000	6.44000E-001	8.23102E-005	10	...........	1
	3078	61.58	6.52159E-001	5.66803E-005	0.00000E+000	6.53000E-001	8.46455E-005	10	...........	1
	3087	61.76	6.61189E-001	5.74192E-005	0.00000E+000	6.62000E-001	8.04754E-005	10	...........	1
	3096	61.94	6.70180E-001	5.74026E-005	0.00000E+000	6.71000E-001	8.93993E-005	10	...........	1
	3105	62.12	6.79119E-001	5.85752E-005	0.00000E+000	6.80000E-001	8.03920E-005	10	...........	1
	3114	62.3	6.88323E-001	5.84351E-005	0.00000E+000	6.89000E-001	8.16430E-005	10	...........	1
	3123	62.48	6.97118E-001	6.02600E-005	0.00000E+000	6.98000E-001	8.23936E-005	10	...........	1
	3132	62.66	7.06162E-001	6.08005E-005	0.00000E+000	7.07000E-001	8.88989E-005	10	...........	1
	3141	62.84	7.15149E-001	6.06954E-005	0.00000E+000	7.16000E-001	7.48041E-005	10	...........	1
	3150	63.02	7.24126E-001	6.11642E-005	0.00000E+000	7.25000E-001	8.75645E-005	10	...........	1
	3159	63.2	7.33177E-001	6.19215E-005	0.00000E+000	7.34000E-001	7.90576E-005	10	...........	1
	3168	63.38	7.42133E-001	6.28373E-005	0.00000E+000	7.43000E-001	8.85653E-005	10	...........	1
	3177	63.56	7.51112E-001	6.21884E-005	0.00000E+000	7.52000E-001	7.56381E-005	10	...........	1
	3186	63.74	7.60133E-001	6.32426E-005	0.00000E+000	7.61000E-001	7.79733E-005	10	...........	1
	3195	63.92	7.69034E-001	6.31893E-005	0.00000E+000	7.70000E-001	8.35612E-005	10	...........	1
	3204	64.1	7.78133E-001	6.52410E-005	0.00000E+000	7.79000E-001	9.75727E-005	10	...........	1
	3213	64.28	7.87091E-001	6.53395E-005	0.00000E+000	7.88000E-001	8.06422E-005	10	...........	1
	3222	64.46	7.96095E-001	6.69042E-005	0.00000E+000	7.97000E-001	8.92325E-005	10	...........	1
	3231	64.64	7.93049E-001	5.43449E-005	0.00000E+000	7.94000E-001	8.47289E-005	10	...........	1
	3240	64.82	7.84275E-001	4.43579E-005	0.00000E+000	7.85000E-001	8.75645E-005	10	...........	1
	3249	65	7.75133E-001	3.73868E-005	0.00000E+000	7.76000E-001	7.93912E-005	10	...........	1
	3258	65.18	7.66117E-001	3.21873E-005	0.00000E+000	7.67000E-001	8.91491E-005	10	...........	1
	3267	65.36	7.57176E-001	2.74248E-005	0.00000E+000	7.58000E-001	8.42284E-005	10	...........	1
	3276	65.54	7.48124E-001	2.44305E-005	0.00000E+000	7.49000E-001	8.53961E-005	10	...........	1
	3285	65.72	7.39131E-001	2.13011E-005	0.00000E+000	7.40000E-001	7.99750E-005	10	...........	1
	3294	65.9	7.30129E-001	1.86605E-005	0.00000E+000	7.31000E-001	8.23936E-005	10	...........	1
	3303	66.08	7.21088E-001	1.70658E-005	0.00000E+000	7.22000E-001	8.77313E-005	10	...........	1
	3312	66.26	7.12338E-001	1.49890E-005	0.00000E+000	7.13000E-001	7.87239E-005	10	...........	1
	3321	66.44	7.03150E-001	1.42483E-005	0.00000E+000	7.04000E-001	7.63053E-005	10	...........	1
	3330	66.62	6.94154E-001	1.22249E-005	0.00000E+000	6.95000E-001	8.30608E-005	10	...........	1
	3339	66.8	6.85201E-001	1.20130E-005	0.00000E+000	6.86000E-001	8.01418E-005	10	...........	1
	3348	66.98	6.76177E-001	1.08087E-005	0.00000E+000	6.77000E-001	7.80567E-005	10	...........	1
	3357	67.16	6.67210E-001	1.02148E-005	0.00000E+000	6.68000E-001	7.53045E-005	10	...........	1
	3366	67.34	6.58200E-001	8.70015E-006	0.00000E+000	6.59000E-001	8.03920E-005	10	...........	1
	3375	67.52	6.49173E-001	7.74098E-006	0.00000E+000	6.50000E-001	8.03086E-005	10	...........	1
	3384	67.7	6.40354E-001	7.22386E-006	0.00000E+000	6.41000E-001	8.32276E-005	10	...........	1
	3393	67.88	6.31221E-001	6.77014E-006	0.00000E+000	6.32000E-001	7.90576E-005	10	...........	1
	3402	68.06	6.22216E-001	6.68006E-006	0.00000E+000	6.23000E-001	8.08090E-005	10	...........	1
	3411	68.24	6.13256E-001	5.14539E-006	0.00000E+000	6.14000E-001	8.52293E-005	10	...........	1
	3420	68.42	6.04209E-001	6.28972E-006	0.00000E+000	6.05000E-001	8.19766E-005	10	...........	1
	3429	68.6	5.95268E-001	4.47981E-006	0.00000E+000	5.96000E-001	8.03086E-005	10	...........	1
	3438	68.78	5.86299E-001	5.06031E-006	0.00000E+000	5.87000E-001	8.25604E-005	10	...........	1
	3447	68.96	5.77248E-001	3.99772E-006	0.00000E+000	5.78000E-001	8.25604E-005	10	...........	1
	3456	69.14	5.68354E-001	4.14618E-006	0.00000E+000	5.69000E-001	7.86405E-005	10	...........	1
	3465	69.32	5.59283E-001	3.67077E-006	0.00000E+000	5.60000E-001	7.27190E-005	10	...........	1
	3474	69.5	5.50260E-001	3.42055E-006	0.00000E+000	5.51000E-001	7.62219E-005	10	...........	1
	3483	69.68	5.41323E-001	2.84172E-006	0.00000E+000	5.42000E-001	8.44786E-005	10	...........	1
	3492	69.86	5.32231E-001	2.29791E-006	0.00000E+000	5.33000E-001	7.98082E-005	10	...........	1
	3501	70.04	5.23303E-001	2.00932E-006	0.00000E+000	5.24000E-001	8.25604E-005	10	...........	1
	3510	70.22	5.14327E-001	1.85919E-006	0.00000E+000	5.15000E-001	7.86405E-005	10	...........	1
	3519	70.4	5.05326E-001	2.29958E-006	0.00000E+000	5.06000E-001	9.15678E-005	10	...........	1
	3528	70.58	4.96390E-001	1.00011E-006	0.00000E+000	4.97000E-001	8.43953E-005	10	...........	1
	3537	70.76	4.87337E-001	1.63567E-006	0.00000E+000	4.88000E-001	8.40616E-005	10	...........	1
	3546	70.94	4.78359E-001	2.27773E-007	0.00000E+000	4.79000E-001	7.48875E-005	10	...........	1
	3555	71.12	4.69371E-001	8.19955E-007	0.00000E+000	4.70000E-001	8.31442E-005	10	...........	1
	3564	71.3	4.60306E-001	4.26279E-007	0.00000E+000	4.61000E-001	7.53879E-005	10	...........	1
	3573	71.48	4.51529E-001	4.91336E-007	0.00000E+000	4.52000E-001	7.45539E-005	10	...........	1
	3582	71.66	4.42386E-001	2.41118E-007	0.00000E+000	4.43000E-001	8.05588E-005	10	...........	1
	3591	71.84	4.33422E-001	2.09424E-007	0.00000E+000	4.34000E-001	8.83985E-005	10	...........	1
	3600	72.02	4.24417E-001	-3.52732E-007	0.00000E+000	4.25000E-001	7.55547E-005	10	...........	1
	3609	72.2	4.15382E-001	-1.40698E-006	0.00000E+000	4.16000E-001	8.13094E-005	10	...........	1
	3618	72.38	4.06452E-001	-1.58214E-006	0.00000E+000	4.07000E-001	7.11344E-005	10	...........	1
	3627	72.56	3.97391E-001	-2.31277E-006	0.00000E+000	3.98000E-001	8.83151E-005	10	...........	1
	3636	72.74	3.88434E-001	-1.55711E-006	0.00000E+000	3.89000E-001	7.98082E-005	10	...........	1
	3645	72.92	3.79582E-001	-2.43621E-006	0.00000E+000	3.80000E-001	7.50543E-005	10	...........	1
	3654	73.1	3.70446E-001	-2.83489E-006	0.00000E+000	3.71000E-001	7.43037E-005	10	...........	1
	3663	73.28	3.61440E-001	-3.50381E-006	0.00000E+000	3.62000E-001	8.37280E-005	10	...........	1
	3672	73.46	3.52463E-001	-3.56219E-006	0.00000E+000	3.53000E-001	8.35612E-005	10	...........	1
	3681	73.64	3.43444E-001	-4.48800E-006	0.00000E+000	3.44000E-001	8.04754E-005	10	...........	1
	3690	73.82	3.34532E-001	-5.30871E-006	0.00000E+000	3.35000E-001	7.48875E-005	10	...........	1
	3699	74	3.25511E-001	-5.84084E-006	0.00000E+000	3.26000E-001	7.62219E-005	10	...........	1
	3708	74.18	3.16466E-001	-6.55313E-006	0.00000E+000	3.17000E-001	7.23020E-005	10	...........	1
	3717	74.36	3.07583E-001	-7.25874E-006	0.00000E+000	3.08000E-001	7.05506E-005	10	...........	1
	3726	74.54	2.98514E-001	-8.43477E-006	0.00000E+000	2.99000E-001	7.95580E-005	10	...........	1
	3735	74.72	2.89509E-001	-8.32134E-006	0.00000E+000	2.90000E-001	7.46373E-005	10	...........	1
	3744	74.9	2.80573E-001	-9.51738E-006	0.00000E+000	2.81000E-001	8.83985E-005	10	...........	1
	3753	75.08	2.71440E-001	-1.05816E-005	0.00000E+000	2.72000E-001	7.45539E-005	10	...........	1
	3762	75.26	2.62587E-001	-1.21714E-005	0.00000E+000	2.63000E-001	7.83069E-005	10	...........	1
	3771	75.44	2.53559E-001	-1.23448E-005	0.00000E+000	2.54000E-001	7.63887E-005	10	...........	1
	3780	75.62	2.44518E-001	-1.42648E-005	0.00000E+000	2.45000E-001	8.04754E-005	10	...........	1
	3789	75.8	2.35600E-001	-1.52991E-005	0.00000E+000	2.36000E-001	7.93078E-005	10	...........	1
	3798	75.98	2.26570E-001	-1.71006E-005	0.00000E+000	2.27000E-001	7.88073E-005	10	...........	1
	3807	76.16	2.17544E-001	-1.86720E-005	0.00000E+000	2.18000E-001	7.05506E-005	10	...........	1
	3816	76.34	2.08586E-001	-2.04085E-005	0.00000E+000	2.09000E-001	8.38948E-005	10	...........	1
	3825	76.52	1.99544E-001	-2.34462E-005	0.00000E+000	2.00000E-001	7.06340E-005	10	...........	1
	3834	76.7	1.90625E-001	-2.48574E-005	0.00000E+000	1.91000E-001	7.90576E-005	10	...........	1
	3843	76.88	1.81613E-001	-2.82287E-005	0.00000E+000	1.82000E-001	6.82987E-005	10	...........	1
	3852	77.06	1.72628E-001	-3.01437E-005	0.00000E+000	1.73000E-001	8.24770E-005	10	...........	1
	3861	77.24	1.63638E-001	-3.47477E-005	0.00000E+000	1.64000E-001	7.53045E-005	10	...........	1
	3870	77.42	1.54594E-001	-3.66910E-005	0.00000E+000	1.55000E-001	7.50543E-005	10	...........	1
	3879	77.6	1.45640E-001	-4.17221E-005	0.00000E+000	1.46000E-001	6.99668E-005	10	...........	1
	3888	77.78	1.36651E-001	-4.49666E-005	0.00000E+000	1.37000E-001	8.33944E-005	10	...........	1
	3897	77.96	1.27666E-001	-4.87482E-005	0.00000E+000	1.28000E-001	8.25604E-005	10	...........	1
	3906	78.14	1.18784E-001	-5.34173E-005	0.00000E+000	1.19000E-001	7.53045E-005	10	...........	1
	3915	78.32	1.09662E-001	-5.66501E-005	0.00000E+000	1.10000E-001	6.97166E-005	10	...........	1
	3924	78.5	1.00672E-001	-6.25452E-005	0.00000E+000	1.01000E-001	7.69725E-005	10	...........	1
	3933	78.68	9.16886E-002	-6.65187E-005	0.00000E+000	9.20000E-002	8.18098E-005	10	...........	1
	3942	78.86	8.26478E-002	-7.19117E-005	0.00000E+000	8.30000E-002	8.03920E-005	10	...........	1
	3951	79.04	7.38363E-002	-7.62672E-005	0.00000E+000	7.40000E-002	7.87239E-005	10	...........	1
	3960	79.22	6.46653E-002	-8.03474E-005	0.00000E+000	6.50000E-002	6.81320E-005	10	...........	1
	3969	79.4	5.57134E-002	-8.32449E-005	0.00000E+000	5.60000E-002	8.11426E-005	10	...........	1
	3978	79.58	4.67950E-002	-8.68197E-005	0.00000E+000	4.70000E-002	7.76397E-005	10	...........	1
	3987	79.76	3.77026E-002	-8.84928E-005	0.00000E+000	3.80000E-002	7.87239E-005	10	...........	1
	3996	79.94	2.87363E-002	-9.10784E-005	0.00000E+000	2.90000E-002	7.15514E-005	10	...........	1
	4005	80.12	1.97968E-002	-9.10367E-005	0.00000E+000	2.00000E-002	8.08924E-005	10	...........	1
	4014	80.3	1.06990E-002	-9.12519E-005	0.00000E+000	1.10000E-002	7.19684E-005	10	...........	1
	4023	80.48	1.86425E-003	-9.06814E-005	0.00000E+000	2.00000E-003	8.22268E-005	10	...........	1
	4032	80.66	-7.19725E-003	-8.90683E-005	0.00000E+000	-6.99998E-003	7.07174E-005	10	...........	1
	4041	80.84	-1.62190E-002	-8.79974E-005	0.00000E+000	-1.60000E-002	7.95580E-005	10	...........	1
	4050	81.02	-2.51769E-002	-8.49731E-005	0.00000E+000	-2.50000E-002	7.91409E-005	10	...........	1
	4059	81.2	-3.42024E-002	-8.30931E-005	0.00000E+000	-3.40000E-002	7.93078E-005	10	...........	1
	4068	81.38	-4.31658E-002	-7.91964E-005	0.00000E+000	-4.30000E-002	7.18850E-005	10	...........	1
	4077	81.56	-5.21537E-002	-7.71446E-005	0.00000E+000	-5.20000E-002	7.48875E-005	10	...........	1
	4086	81.74	-6.11918E-002	-7.30677E-005	0.00000E+000	-6.10000E-002	7.53879E-005	10	...........	1
	4095	81.92	-7.01055E-002	-7.08591E-005	0.00000E+000	-7.00000E-002	7.29692E-005	10	...........	1
	4104	82.1	-7.91263E-002	-6.77064E-005	0.00000E+000	-7.90000E-002	7.42203E-005	10	...........	1
	4113	82.28	-8.81861E-002	-6.48089E-005	0.00000E+000	-8.80000E-002	6.65473E-005	10	...........	1
	4122	82.46	-9.71267E-002	-6.18863E-005	0.00000E+000	-9.70000E-002	8.13094E-005	10	...........	1
	4131	82.64	-1.06165E-001	-6.02349E-005	0.00000E+000	-1.06000E-001	7.62219E-005	10	...........	1
	4140	82.82	-1.15126E-001	-5.79862E-005	0.00000E+000	-1.15000E-001	7.24688E-005	10	...........	1
	4149	83	-1.24079E-001	-5.56709E-005	0.00000E+000	-1.24000E-001	7.52211E-005	10	...........	1
	4158	83.18	-1.33082E-001	-5.50470E-005	0.00000E+000	-1.33000E-001	7.66389E-005	10	...........	1
	4167	83.36	-1.42096E-001	-5.31537E-005	0.00000E+000	-1.42000E-001	8.07256E-005	10	...........	1
	4176	83.54	-1.51055E-001	-5.28701E-005	0.00000E+000	-1.51000E-001	7.97248E-005	10	...........	1
	4185	83.72	-1.60100E-001	-5.10319E-005	0.00000E+000	-1.60000E-001	6.95498E-005	10	...........	1
	4194	83.9	-1.69066E-001	-5.05514E-005	0.00000E+000	-1.69000E-001	8.52293E-005	10	...........	1
	4203	84.08	-1.78121E-001	-4.94521E-005	0.00000E+000	-1.78000E-001	7.70559E-005	10	...........	1
	4212	84.26	-1.86983E-001	-4.90835E-005	0.00000E+000	-1.87000E-001	6.69643E-005	10	...........	1
	4221	84.44	-1.96046E-001	-4.72869E-005	0.00000E+000	-1.96000E-001	6.65473E-005	10	...........	1
	4230	84.62	-2.05031E-001	-4.70984E-005	0.00000E+000	-2.05000E-001	7.98082E-005	10	...........	1
	4239	84.8	-2.13999E-001	-4.66347E-005	0.00000E+000	-2.14000E-001	7.55547E-005	10	...........	1
	4248	84.98	-2.23033E-001	-4.67364E-005	0.00000E+000	-2.23000E-001	7.64721E-005	10	...........	1
	4257	85.16	-2.32006E-001	-4.71718E-005	0.00000E+000	-2.32000E-001	6.63805E-005	10	...........	1
	4266	85.34	-2.40991E-001	-4.61259E-005	0.00000E+000	-2.41000E-001	7.60551E-005	10	...........	1
	4275	85.52	-2.50019E-001	-4.65213E-005	0.00000E+000	-2.50000E-001	7.37198E-005	10	...........	1
	4284	85.7	-2.58879E-001	-4.56588E-005	0.00000E+000	-2.59000E-001	7.18850E-005	10	...........	1
	4293	85.88	-2.68000E-001	-4.58040E-005	0.00000E+000	-2.68000E-001	6.15432E-005	10	...........	1
	4302	86.06	-2.77005E-001	-4.52201E-005	0.00000E+000	-2.77000E-001	7.76397E-005	10	...........	1
	4311	86.24	-2.85922E-001	-4.56171E-005	0.00000E+000	-2.86000E-001	7.88907E-005	10	...........	1
	4320	86.42	-2.94978E-001	-4.48198E-005	0.00000E+000	-2.95000E-001	7.40535E-005	10	...........	1
	4329	86.6	-3.03891E-001	-4.63294E-005	0.00000E+000	-3.04000E-001	7.14680E-005	10	...........	1
	4338	86.78	-3.12912E-001	-4.53035E-005	0.00000E+000	-3.13000E-001	7.42203E-005	10	...........	1
	4347	86.96	-3.21954E-001	-4.61743E-005	0.00000E+000	-3.22000E-001	8.11426E-005	10	...........	1
	4356	87.14	-3.30825E-001	-4.66847E-005	0.00000E+000	-3.31000E-001	7.13012E-005	10	...........	1
	4365	87.32	-3.39886E-001	-4.72269E-005	0.00000E+000	-3.40000E-001	6.86324E-005	10	...........	1
	4374	87.5	-3.48901E-001	-4.83212E-005	0.00000E+000	-3.49000E-001	6.90494E-005	10	...........	1
	4383	87.68	-3.57888E-001	-4.91752E-005	0.00000E+000	-3.58000E-001	7.70559E-005	10	...........	1
	4392	87.86	-3.66966E-001	-5.01277E-005	0.00000E+000	-3.67000E-001	7.64721E-005	10	...........	1
	4401	88.04	-3.75865E-001	-5.11269E-005	0.00000E+000	-3.76000E-001	7.35530E-005	10	...........	1
	4410	88.22	-3.84847E-001	-5.28701E-005	0.00000E+000	-3.85000E-001	7.44705E-005	10	...........	1
	4419	88.4	-3.93875E-001	-5.29485E-005	0.00000E+000	-3.94000E-001	7.47207E-005	10	...........	1
	4428	88.58	-4.02824E-001	-5.59078E-005	0.00000E+000	-4.03000E-001	8.13094E-005	10	...........	1
	4437	88.76	-4.11814E-001	-5.64466E-005	0.00000E+000	-4.12000E-001	7.66389E-005	10	...........	1
	4446	88.94	-4.20851E-001	-5.96594E-005	0.00000E+000	-4.21000E-001	7.31360E-005	10	...........	1
	4455	89.12	-4.29819E-001	-6.15744E-005	0.00000E+000	-4.30000E-001	8.23102E-005	10	...........	1
	4464	89.3	-4.38841E-001	-6.49723E-005	0.00000E+000	-4.39000E-001	7.54713E-005	10	...........	1
	4473	89.48	-4.47808E-001	-6.85137E-005	0.00000E+000	-4.48000E-001	8.03920E-005	10	...........	1
	4482	89.66	-4.56761E-001	-7.03453E-005	0.00000E+000	-4.57000E-001	7.05506E-005	10	...........	1
	4491	89.84	-4.65791E-001	-7.62672E-005	0.00000E+000	-4.66000E-001	8.37280E-005	10	...........	1
	4500	90.02	-4.74802E-001	-7.78318E-005	0.00000E+000	-4.75000E-001	7.73895E-005	10	...........	1
	4509	90.2	-4.83808E-001	-8.46761E-005	0.00000E+000	-4.84000E-001	7.83069E-005	10	...........	1
	4518	90.38	-4.92739E-001	-8.40940E-005	0.00000E+000	-4.93000E-001	7.03838E-005	10	...........	1
	4527	90.56	-4.97830E-001	-6.42434E-005	0.00000E+000	-4.98000E-001	7.08842E-005	10	...........	2
	4536	90.74	-4.88784E-001	-4.38189E-005	0.00000E+000	-4.89000E-001	7.32194E-005	10	...........	2
	4545	90.92	-4.79749E-001	-3.93083E-005	0.00000E+000	-4.80000E-001	7.92243E-005	10	...........	2
	4554	91.1	-4.70885E-001	-3.26158E-005	0.00000E+000	-4.71000E-001	7.56381E-005	10	...........	2
	4563	91.28	-4.61809E-001	-3.05524E-005	0.00000E+000	-4.62000E-001	8.71475E-005	10	...........	2
	4572	91.46	-4.52841E-001	-2.76765E-005	0.00000E+000	-4.53000E-001	7.34697E-005	10	...........	2
	4581	91.64	-4.43835E-001	-2.83521E-005	0.00000E+000	-4.44000E-001	7.39701E-005	10	...........	2
	4590	91.82	-4.34800E-001	-2.69859E-005	0.00000E+000	-4.35000E-001	7.13846E-005	10	...........	2
	4599	92	-4.25878E-001	-2.72695E-005	0.00000E+000	-4.26000E-001	7.80567E-005	10	...........	2
	4608	92.18	-4.16848E-001	-2.69526E-005	0.00000E+000	-4.17000E-001	7.29692E-005	10	...........	2
	4617	92.36	-4.07787E-001	-2.71694E-005	0.00000E+000	-4.08000E-001	7.88907E-005	10	...........	2
	4626	92.54	-3.98911E-001	-2.93980E-005	0.00000E+000	-3.99000E-001	7.14680E-005	10	...........	2
	4635	92.72	-3.89852E-001	-2.86774E-005	0.00000E+000	-3.90000E-001	8.38948E-005	10	...........	2
	4644	92.9	-3.80900E-001	-2.93313E-005	0.00000E+000	-3.81000E-001	7.65555E-005	10	...........	2
	4653	93.08	-3.71924E-001	-2.87575E-005	0.00000E+000	-3.72000E-001	7.70559E-005	10	...........	2
	4662	93.26	-3.62830E-001	-2.87091E-005	0.00000E+000	-3.63000E-001	7.80567E-005	10	...........	2
	4671	93.44	-3.53938E-001	-2.80669E-005	0.00000E+000	-3.54000E-001	8.00584E-005	10	...........	2
	4680	93.62	-3.44962E-001	-2.81152E-005	0.00000E+000	-3.45000E-001	7.30526E-005	10	...........	2
	4689	93.8	-3.35857E-001	-2.76832E-005	0.00000E+000	-3.36000E-001	7.30526E-005	10	...........	2
	4698	93.98	-3.26948E-001	-2.75864E-005	0.00000E+000	-3.27000E-001	6.94664E-005	10	...........	2
	4707	94.16	-3.17942E-001	-2.64972E-005	0.00000E+000	-3.18000E-001	8.31442E-005	10	...........	2
	4716	94.34	-3.08963E-001	-2.68525E-005	0.00000E+000	-3.09000E-001	7.38866E-005	10	...........	2
	4725	94.52	-2.99972E-001	-2.61735E-005	0.00000E+000	-3.00000E-001	7.39701E-005	10	...........	2
	4734	94.7	-2.90849E-001	-2.53345E-005	0.00000E+000	-2.91000E-001	7.60551E-005	10	...........	2
	4740	94.82	-2.84978E-001	-2.59050E-005	0.00000E+000	-2.85000E-001	7.41369E-005	10	...........	2