File: 20191202/CVTESTKRISTALL5BOX4.DTA
EXPLAIN
TAG	CV
TITLE	LABEL	CV	Test &Identifier
DATE	LABEL	12/2/2019	Date
TIME	LABEL	9:40:36	Time
NOTES	NOTES	1	&Notes...

PSTAT	PSTAT	REF600-16093	Potentiostat
VINIT	POTEN	0.00000E+000	T	Initial &E (V)
VLIMIT1	POTEN	8.00000E-001	F	Scan Limit &1 (V)
VLIMIT2	POTEN	-6.00000E-001	F	Scan Limit &2 (V)
VFINAL	POTEN	0.00000E+000	T	Final &E (V)
SCANRATE	QUANT	4.99999E+001	&Scan Rate (mV/s)
STEPSIZE	QUANT	1.00000E+000	St&ep Size (mV)
CYCLES	IQUANT	5	C&ycles (#)
IMODE	SELECTOR	1	I/E Range &Mode
IRANGE	QUANT	1.50000E+001	&Max Current (mA)
AREA	QUANT	1.00000E+000	Electrode &Area (cm^2)
ELECTRODETYPE	SELECTOR	0	Electrode Type
STRIPPING	TOGGLE	F	Used for Stripping
POLARITY	TOGGLE	F	Signal Polarity
CONDIT	TWOPARAM	F	1.50000E+001	0.00000E+000	Conditionin&g	Time(s)	E(V)
DELAY	TWOPARAM	T	5.00000E+000	0.00000E+000	Init. De&lay	Time(s)	Stab.(mV/s)
EQDELAY	QUANT	3.00000E+000	Equil. &Time (s)
IRCOMP	SELECTOR	0	IRCom&p
PFCOR	QUANT	0.00000E+000	PF Corr. (ohm)
SAMPLINGMODE	SELECTOR	2	Sampling &Mode
OCVCURVE	TABLE	20
	Pt	T	Vf	Vm	Ach	Over
	#	s	V vs. Ref.	V	V	bits
	0	0.25	1.61506E-001	1.61506E-001	8.21002E-005	...........
	1	0.5	1.61504E-001	1.61393E-001	8.06002E-005	...........
	2	0.75	1.61493E-001	1.61370E-001	8.33085E-005	...........
	3	1	1.61468E-001	1.61513E-001	8.43918E-005	...........
	4	1.25	1.61444E-001	1.61446E-001	8.14336E-005	...........
	5	1.5	1.61439E-001	1.61540E-001	8.46835E-005	...........
	6	1.75	1.61452E-001	1.61405E-001	7.93502E-005	...........
	7	2	1.61466E-001	1.61493E-001	8.68085E-005	...........
	8	2.25	1.61470E-001	1.61350E-001	8.22669E-005	...........
	9	2.5	1.61458E-001	1.61388E-001	7.75586E-005	...........
	10	2.75	1.61436E-001	1.61467E-001	7.70170E-005	...........
	11	3	1.61418E-001	1.61417E-001	7.71003E-005	...........
	12	3.25	1.61416E-001	1.61494E-001	7.47670E-005	...........
	13	3.5	1.61426E-001	1.61404E-001	7.44753E-005	...........
	14	3.75	1.61438E-001	1.61476E-001	8.08919E-005	...........
	15	4	1.61443E-001	1.61276E-001	7.70586E-005	...........
	16	4.25	1.61431E-001	1.61387E-001	7.81003E-005	...........
	17	4.5	1.61406E-001	1.61398E-001	8.46418E-005	...........
	18	4.75	1.61384E-001	1.61371E-001	8.07669E-005	...........
	19	5	1.61376E-001	1.61431E-001	7.92669E-005	...........
EOC	QUANT	0.1613757	Open Circuit (V)
PSTATMODEL	IQUANT	4	Pstat Model
PSTATSECTION	LABEL	REF600-16093	Pstat Section
PSTATSERIALNO	LABEL	16093	Pstat Serial Number
CTRLMODE	IQUANT	1	Control Mode
IESTAB	IQUANT	2	I/E Stability
CASPEED	IQUANT	2	Control Amp Speed
CONVENTION	IQUANT	1	Current Convention
ICHRANGE	IQUANT	2	Ich Range
ICHRANGEMODE	TOGGLE	F	Ich Auto Range
ICHOFFSETENABLE	TOGGLE	F	Ich Offset Enable
ICHOFFSET	QUANT	0	Ich Offset (V)
ICHFILTER	IQUANT	2	Ich Filter
VCHRANGE	IQUANT	2	Vch Range
VCHRANGEMODE	TOGGLE	F	Vch Auto Range
VCHOFFSETENABLE	TOGGLE	F	Vch Offset Enable
VCHOFFSET	QUANT	0	Vch Offset (V)
VCHFILTER	IQUANT	2	Vch Filter
ACHRANGE	IQUANT	2	Ach Range
ACHOFFSETENABLE	TOGGLE	F	Ach Offset Enable
ACHOFFSET	QUANT	0	Ach Offset (V)
ACHFILTER	IQUANT	1	Ach Filter
IERANGELOWERLIMIT	IQUANT	1	I/E Range Lower Limit
IERANGEMODE	TOGGLE	F	I/E AutoRange
IERANGE	IQUANT	10	I/E Range
POSFEEDENABLE	TOGGLE	F	Positive Feedback IR Comp
POSFEEDRESISTANCE	QUANT	0	Positive Feedback Resistance (ohm)
ACHSELECT	IQUANT	0	Ach Select
CABLEID	IQUANT	14	Cable ID
DCCALDATE	LABEL	11/5/2019	DC Calibration Date
ACCALDATE	LABEL		AC Calibration Date
THERMOSELECT	IQUANT	1	Thermo Select
FRAMEWORKVERSION	QUANT	6.12	Framework Version
INSTRUMENTVERSION	LABEL	3.11	Instrument Version
CURVE1	TABLE
	Pt	T	Vf	Im	Vu	Sig	Ach	IERange	Over
	#	s	V vs. Ref.	A	V	V	V	#	bits
	0	0.02	1.61278E-001	-1.00163E-006	0.00000E+000	1.61400E-001	8.58965E-005	10	...........
	4	0.1	1.65279E-001	-2.04270E-007	0.00000E+000	1.65400E-001	8.45620E-005	10	...........
	8	0.18	1.69172E-001	1.37695E-007	0.00000E+000	1.69400E-001	9.01500E-005	10	...........
	12	0.26	1.73268E-001	-1.62567E-007	0.00000E+000	1.73400E-001	8.48957E-005	10	...........
	16	0.34	1.77235E-001	4.98008E-007	0.00000E+000	1.77400E-001	8.46455E-005	10	...........
	20	0.42	1.81277E-001	1.22531E-006	0.00000E+000	1.81400E-001	9.20682E-005	10	...........
	24	0.5	1.85214E-001	5.56392E-007	0.00000E+000	1.85400E-001	8.08924E-005	10	...........
	28	0.58	1.89244E-001	5.46384E-007	0.00000E+000	1.89400E-001	8.95661E-005	10	...........
	32	0.66	1.93153E-001	1.52708E-007	0.00000E+000	1.93400E-001	8.47289E-005	10	...........
	36	0.74	1.97243E-001	1.23532E-006	0.00000E+000	1.97400E-001	8.15596E-005	10	...........
	40	0.82	2.01184E-001	1.60397E-006	0.00000E+000	2.01400E-001	8.88989E-005	10	...........
	44	0.9	2.05202E-001	1.57561E-006	0.00000E+000	2.05400E-001	8.58965E-005	10	...........
	48	0.98	2.09174E-001	5.41379E-007	0.00000E+000	2.09400E-001	8.88989E-005	10	...........
	52	1.06	2.13206E-001	1.27686E-007	0.00000E+000	2.13400E-001	8.43953E-005	10	...........
	56	1.14	2.17157E-001	7.19868E-007	0.00000E+000	2.17400E-001	8.58965E-005	10	...........
	60	1.22	2.21203E-001	9.36724E-007	0.00000E+000	2.21400E-001	8.38948E-005	10	...........
	64	1.3	2.25078E-001	1.80248E-006	0.00000E+000	2.25400E-001	8.45620E-005	10	...........
	68	1.38	2.29207E-001	1.34875E-006	0.00000E+000	2.29400E-001	8.95661E-005	10	...........
	72	1.46	2.33136E-001	1.89422E-006	0.00000E+000	2.33400E-001	8.06422E-005	10	...........
	76	1.54	2.37194E-001	1.73909E-006	0.00000E+000	2.37400E-001	8.23936E-005	10	...........
	80	1.62	2.41147E-001	1.56227E-006	0.00000E+000	2.41400E-001	8.04754E-005	10	...........
	84	1.7	2.45186E-001	2.47306E-006	0.00000E+000	2.45400E-001	8.50625E-005	10	...........
	88	1.78	2.49059E-001	1.37544E-006	0.00000E+000	2.49400E-001	8.33944E-005	10	...........
	92	1.86	2.53192E-001	6.99851E-007	0.00000E+000	2.53400E-001	8.17264E-005	10	...........
	96	1.94	2.57111E-001	9.76758E-007	0.00000E+000	2.57400E-001	8.40616E-005	10	...........
	100	2.02	2.61194E-001	1.93926E-006	0.00000E+000	2.61400E-001	8.19766E-005	10	...........
	104	2.1	2.65141E-001	1.24199E-006	0.00000E+000	2.65400E-001	8.90657E-005	10	...........
	108	2.18	2.69180E-001	1.18861E-006	0.00000E+000	2.69400E-001	8.39782E-005	10	...........
	112	2.26	2.73013E-001	1.14357E-006	0.00000E+000	2.73400E-001	8.13928E-005	10	...........
	116	2.34	2.77190E-001	1.62399E-006	0.00000E+000	2.77400E-001	8.29774E-005	10	...........
	120	2.42	2.81082E-001	1.86086E-006	0.00000E+000	2.81400E-001	8.22268E-005	10	...........
	124	2.5	2.85182E-001	2.13443E-006	0.00000E+000	2.85400E-001	8.38948E-005	10	...........
	128	2.58	2.89134E-001	2.83504E-006	0.00000E+000	2.89400E-001	8.13094E-005	10	...........
	132	2.66	2.93173E-001	2.10107E-006	0.00000E+000	2.93400E-001	8.13094E-005	10	...........
	136	2.74	2.97023E-001	1.70406E-006	0.00000E+000	2.97400E-001	8.18932E-005	10	...........
	140	2.82	3.01180E-001	1.52557E-006	0.00000E+000	3.01400E-001	8.62301E-005	10	...........
	144	2.9	3.05038E-001	2.21283E-006	0.00000E+000	3.05400E-001	8.54795E-005	10	...........
	148	2.98	3.09176E-001	2.27956E-006	0.00000E+000	3.09400E-001	8.79815E-005	10	...........
	152	3.06	3.13067E-001	2.25120E-006	0.00000E+000	3.13400E-001	8.07256E-005	10	...........
	156	3.14	3.17181E-001	3.16033E-006	0.00000E+000	3.17400E-001	8.29774E-005	10	...........
	160	3.22	3.21028E-001	2.67157E-006	0.00000E+000	3.21400E-001	8.38114E-005	10	...........
	164	3.3	3.25174E-001	3.59237E-006	0.00000E+000	3.25400E-001	8.96496E-005	10	...........
	168	3.38	3.29015E-001	4.36804E-006	0.00000E+000	3.29400E-001	8.35612E-005	10	...........
	172	3.46	3.33171E-001	4.59824E-006	0.00000E+000	3.33400E-001	8.20600E-005	10	...........
	176	3.54	3.37024E-001	3.81756E-006	0.00000E+000	3.37400E-001	8.32276E-005	10	...........
	180	3.62	3.41178E-001	4.41308E-006	0.00000E+000	3.41400E-001	8.18932E-005	10	...........
	184	3.7	3.45079E-001	3.96269E-006	0.00000E+000	3.45400E-001	7.98916E-005	10	...........
	188	3.78	3.49170E-001	4.82177E-006	0.00000E+000	3.49400E-001	7.83903E-005	10	...........
	192	3.86	3.53009E-001	4.56488E-006	0.00000E+000	3.53400E-001	8.04754E-005	10	...........
	196	3.94	3.57171E-001	5.06198E-006	0.00000E+000	3.57400E-001	8.43118E-005	10	...........
	200	4.02	3.61042E-001	5.36391E-006	0.00000E+000	3.61400E-001	9.19014E-005	10	...........
	204	4.1	3.65164E-001	5.50070E-006	0.00000E+000	3.65400E-001	8.67305E-005	10	...........
	208	4.18	3.69066E-001	6.26803E-006	0.00000E+000	3.69400E-001	8.59799E-005	10	...........
	212	4.26	3.73172E-001	7.04871E-006	0.00000E+000	3.73400E-001	8.17264E-005	10	...........
	216	4.34	3.76993E-001	7.69261E-006	0.00000E+000	3.77400E-001	8.68139E-005	10	...........
	220	4.42	3.81171E-001	7.35565E-006	0.00000E+000	3.81400E-001	8.53127E-005	10	...........
	224	4.5	3.85006E-001	7.73931E-006	0.00000E+000	3.85400E-001	8.48123E-005	10	...........
	228	4.58	3.89165E-001	7.74265E-006	0.00000E+000	3.89400E-001	9.12342E-005	10	...........
	232	4.66	3.93038E-001	8.22474E-006	0.00000E+000	3.93400E-001	8.63969E-005	10	...........
	236	4.74	3.97132E-001	7.78435E-006	0.00000E+000	3.97400E-001	8.67305E-005	10	...........
	240	4.82	4.00979E-001	8.33483E-006	0.00000E+000	4.01400E-001	9.01500E-005	10	...........
	244	4.9	4.05168E-001	8.13466E-006	0.00000E+000	4.05400E-001	8.63135E-005	10	...........
	248	4.98	4.09017E-001	9.47249E-006	0.00000E+000	4.09400E-001	8.45620E-005	10	...........
	252	5.06	4.13156E-001	9.75273E-006	0.00000E+000	4.13400E-001	8.57297E-005	10	...........
	256	5.14	4.16995E-001	1.03366E-005	0.00000E+000	4.17400E-001	8.98998E-005	10	...........
	260	5.22	4.21075E-001	1.01965E-005	0.00000E+000	4.21400E-001	8.48123E-005	10	...........
	264	5.3	4.24969E-001	1.08453E-005	0.00000E+000	4.25400E-001	8.37280E-005	10	...........
	268	5.38	4.29164E-001	1.06502E-005	0.00000E+000	4.29400E-001	8.40616E-005	10	...........
	272	5.46	4.32981E-001	1.15893E-005	0.00000E+000	4.33400E-001	8.33110E-005	10	...........
	276	5.54	4.37157E-001	1.15643E-005	0.00000E+000	4.37400E-001	8.25604E-005	10	...........
	280	5.62	4.40974E-001	1.15693E-005	0.00000E+000	4.41400E-001	8.19766E-005	10	...........
	284	5.7	4.45085E-001	1.25251E-005	0.00000E+000	4.45400E-001	7.89741E-005	10	...........
	288	5.78	4.48947E-001	1.22883E-005	0.00000E+000	4.49400E-001	8.43118E-005	10	...........
	292	5.86	4.53129E-001	1.33509E-005	0.00000E+000	4.53400E-001	8.70641E-005	10	...........
	296	5.94	4.56972E-001	1.39998E-005	0.00000E+000	4.57400E-001	8.08090E-005	10	...........
	300	6.02	4.61149E-001	1.40164E-005	0.00000E+000	4.61400E-001	7.87239E-005	10	...........
	304	6.1	4.64967E-001	1.42617E-005	0.00000E+000	4.65400E-001	8.34778E-005	10	...........
	308	6.18	4.69104E-001	1.41849E-005	0.00000E+000	4.69400E-001	8.37280E-005	10	...........
	312	6.26	4.72983E-001	1.49156E-005	0.00000E+000	4.73400E-001	8.78147E-005	10	...........
	316	6.34	4.77160E-001	1.50140E-005	0.00000E+000	4.77400E-001	8.88155E-005	10	...........
	320	6.42	4.80974E-001	1.56295E-005	0.00000E+000	4.81400E-001	9.23184E-005	10	...........
	324	6.5	4.85149E-001	1.51991E-005	0.00000E+000	4.85400E-001	8.24770E-005	10	...........
	328	6.58	4.88957E-001	1.62117E-005	0.00000E+000	4.89400E-001	8.96496E-005	10	...........
	332	6.66	4.93092E-001	1.65270E-005	0.00000E+000	4.93400E-001	8.53961E-005	10	...........
	336	6.74	4.96965E-001	1.77530E-005	0.00000E+000	4.97400E-001	7.98082E-005	10	...........
	340	6.82	5.01162E-001	1.74294E-005	0.00000E+000	5.01400E-001	8.49791E-005	10	...........
	344	6.9	5.04952E-001	1.83669E-005	0.00000E+000	5.05400E-001	8.18098E-005	10	...........
	348	6.98	5.09150E-001	1.81801E-005	0.00000E+000	5.09400E-001	8.35612E-005	10	...........
	352	7.06	5.12936E-001	1.88823E-005	0.00000E+000	5.13400E-001	8.36446E-005	10	...........
	356	7.14	5.17067E-001	1.91776E-005	0.00000E+000	5.17400E-001	8.80649E-005	10	...........
	360	7.22	5.20935E-001	1.88140E-005	0.00000E+000	5.21400E-001	8.68973E-005	10	...........
	364	7.3	5.24957E-001	1.88089E-005	0.00000E+000	5.25400E-001	8.22268E-005	10	...........
	368	7.38	5.28946E-001	1.92176E-005	0.00000E+000	5.29400E-001	9.05670E-005	10	...........
	372	7.46	5.33133E-001	1.91643E-005	0.00000E+000	5.33400E-001	8.63135E-005	10	...........
	376	7.54	5.36939E-001	1.98782E-005	0.00000E+000	5.37400E-001	8.44786E-005	10	...........
	380	7.62	5.41050E-001	2.01218E-005	0.00000E+000	5.41400E-001	8.50625E-005	10	...........
	384	7.7	5.44911E-001	2.03119E-005	0.00000E+000	5.45400E-001	8.26438E-005	10	...........
	388	7.78	5.48981E-001	2.09141E-005	0.00000E+000	5.49400E-001	8.18098E-005	10	...........
	392	7.86	5.52907E-001	2.09825E-005	0.00000E+000	5.53400E-001	8.01418E-005	10	...........
	396	7.94	5.57109E-001	2.05538E-005	0.00000E+000	5.57400E-001	8.63969E-005	10	...........
	400	8.02	5.60919E-001	2.04937E-005	0.00000E+000	5.61400E-001	7.88073E-005	10	...........
	404	8.1	5.65079E-001	1.96997E-005	0.00000E+000	5.65400E-001	8.41450E-005	10	...........
	408	8.18	5.68910E-001	1.98282E-005	0.00000E+000	5.69400E-001	8.59799E-005	10	...........
	412	8.26	5.72992E-001	2.04520E-005	0.00000E+000	5.73400E-001	8.74811E-005	10	...........
	416	8.34	5.76847E-001	1.97031E-005	0.00000E+000	5.77400E-001	8.79815E-005	10	...........
	420	8.42	5.80976E-001	2.02452E-005	0.00000E+000	5.81400E-001	8.13928E-005	10	...........
	424	8.5	5.84907E-001	2.17865E-005	0.00000E+000	5.85400E-001	8.61467E-005	10	...........
	428	8.58	5.89056E-001	2.13645E-005	0.00000E+000	5.89400E-001	8.38948E-005	10	...........
	432	8.66	5.92914E-001	2.17382E-005	0.00000E+000	5.93400E-001	7.72227E-005	10	...........
	436	8.74	5.96937E-001	2.05638E-005	0.00000E+000	5.97400E-001	8.22268E-005	10	...........
	440	8.82	6.00884E-001	2.01284E-005	0.00000E+000	6.01400E-001	8.08090E-005	10	...........
	444	8.9	6.05065E-001	2.03253E-005	0.00000E+000	6.05400E-001	7.90576E-005	10	...........
	448	8.98	6.08867E-001	1.98649E-005	0.00000E+000	6.09400E-001	7.66389E-005	10	...........
	452	9.06	6.12978E-001	1.91726E-005	0.00000E+000	6.13400E-001	7.58883E-005	10	...........
	456	9.14	6.16862E-001	1.93628E-005	0.00000E+000	6.17400E-001	8.63135E-005	10	...........
	460	9.22	6.20855E-001	1.94478E-005	0.00000E+000	6.21400E-001	7.91409E-005	10	...........
	464	9.3	6.24837E-001	1.98332E-005	0.00000E+000	6.25400E-001	8.15596E-005	10	...........
	468	9.38	6.29139E-001	2.05538E-005	0.00000E+000	6.29400E-001	8.27272E-005	10	...........
	472	9.46	6.32830E-001	2.02419E-005	0.00000E+000	6.33400E-001	8.10592E-005	10	...........
	476	9.54	6.36934E-001	2.10693E-005	0.00000E+000	6.37400E-001	8.08090E-005	10	...........
	480	9.62	6.40824E-001	2.03069E-005	0.00000E+000	6.41400E-001	8.38948E-005	10	...........
	484	9.7	6.44838E-001	1.98599E-005	0.00000E+000	6.45400E-001	8.23936E-005	10	...........
	488	9.78	6.48807E-001	1.89124E-005	0.00000E+000	6.49400E-001	8.13928E-005	10	...........
	492	9.86	6.52799E-001	1.93594E-005	0.00000E+000	6.53400E-001	8.28940E-005	10	...........
	496	9.94	6.56799E-001	1.91442E-005	0.00000E+000	6.57400E-001	8.95661E-005	10	...........
	500	10.02	6.60962E-001	1.84286E-005	0.00000E+000	6.61400E-001	8.14762E-005	10	...........
	504	10.1	6.64814E-001	1.84753E-005	0.00000E+000	6.65400E-001	7.97248E-005	10	...........
	508	10.18	6.68889E-001	1.97781E-005	0.00000E+000	6.69400E-001	8.20600E-005	10	...........
	512	10.26	6.72804E-001	2.09058E-005	0.00000E+000	6.73400E-001	7.87239E-005	10	...........
	516	10.34	6.76783E-001	1.97998E-005	0.00000E+000	6.77400E-001	7.72227E-005	10	...........
	520	10.42	6.80786E-001	2.00734E-005	0.00000E+000	6.81400E-001	7.41369E-005	10	...........
	524	10.5	6.84901E-001	1.93778E-005	0.00000E+000	6.85400E-001	8.09758E-005	10	...........
	528	10.58	6.88803E-001	1.93744E-005	0.00000E+000	6.89400E-001	7.65555E-005	10	...........
	532	10.66	6.92891E-001	1.88223E-005	0.00000E+000	6.93400E-001	6.98000E-005	10	...........
	536	10.74	6.96777E-001	1.86905E-005	0.00000E+000	6.97400E-001	7.59717E-005	10	...........
	540	10.82	7.00775E-001	1.84820E-005	0.00000E+000	7.01400E-001	7.26356E-005	10	...........
	544	10.9	7.04713E-001	1.80032E-005	0.00000E+000	7.05400E-001	7.65555E-005	10	...........
	548	10.98	7.08762E-001	1.89607E-005	0.00000E+000	7.09400E-001	7.61385E-005	10	...........
	552	11.06	7.12806E-001	1.93761E-005	0.00000E+000	7.13400E-001	7.33028E-005	10	...........
	556	11.14	7.16804E-001	1.94562E-005	0.00000E+000	7.17400E-001	7.73895E-005	10	...........
	560	11.22	7.20765E-001	1.96230E-005	0.00000E+000	7.21400E-001	7.54713E-005	10	...........
	564	11.3	7.24748E-001	1.91976E-005	0.00000E+000	7.25400E-001	7.60551E-005	10	...........
	568	11.38	7.28749E-001	1.83619E-005	0.00000E+000	7.29400E-001	7.51377E-005	10	...........
	572	11.46	7.32844E-001	1.78932E-005	0.00000E+000	7.33400E-001	8.79815E-005	10	...........
	576	11.54	7.36750E-001	1.80333E-005	0.00000E+000	7.37400E-001	8.03086E-005	10	...........
	580	11.62	7.40789E-001	1.79565E-005	0.00000E+000	7.41400E-001	7.87239E-005	10	...........
	584	11.7	7.44739E-001	1.79966E-005	0.00000E+000	7.45400E-001	7.93912E-005	10	...........
	588	11.78	7.48725E-001	1.83335E-005	0.00000E+000	7.49400E-001	8.12260E-005	10	...........
	592	11.86	7.52735E-001	1.83502E-005	0.00000E+000	7.53400E-001	7.98082E-005	10	...........
	596	11.94	7.56743E-001	1.88089E-005	0.00000E+000	7.57400E-001	8.38114E-005	10	...........
	600	12.02	7.60722E-001	1.95212E-005	0.00000E+000	7.61400E-001	8.28106E-005	10	...........
	604	12.1	7.64769E-001	1.98082E-005	0.00000E+000	7.65400E-001	8.03920E-005	10	...........
	608	12.18	7.68721E-001	1.94862E-005	0.00000E+000	7.69400E-001	8.21434E-005	10	...........
	612	12.26	7.72708E-001	1.85037E-005	0.00000E+000	7.73400E-001	7.66389E-005	10	...........
	616	12.34	7.76735E-001	1.84386E-005	0.00000E+000	7.77400E-001	7.65555E-005	10	...........
	620	12.42	7.80714E-001	1.79432E-005	0.00000E+000	7.81400E-001	8.28106E-005	10	...........
	624	12.5	7.84726E-001	1.83369E-005	0.00000E+000	7.85400E-001	7.91409E-005	10	...........
	628	12.58	7.88781E-001	1.86972E-005	0.00000E+000	7.89400E-001	8.18932E-005	10	...........
	632	12.66	7.92752E-001	1.81317E-005	0.00000E+000	7.93400E-001	7.78065E-005	10	...........
	636	12.74	7.96693E-001	1.87239E-005	0.00000E+000	7.97400E-001	8.12260E-005	10	...........
	640	12.82	7.98789E-001	1.46970E-005	0.00000E+000	7.99400E-001	8.69807E-005	10	...........
	644	12.9	7.94645E-001	1.21131E-005	0.00000E+000	7.95400E-001	8.58965E-005	10	...........
	648	12.98	7.90794E-001	9.40743E-006	0.00000E+000	7.91400E-001	8.90657E-005	10	...........
	652	13.06	7.86630E-001	7.45740E-006	0.00000E+000	7.87400E-001	9.16512E-005	10	...........
	656	13.14	7.82791E-001	5.89104E-006	0.00000E+000	7.83400E-001	8.44786E-005	10	...........
	660	13.22	7.78735E-001	3.83758E-006	0.00000E+000	7.79400E-001	8.53961E-005	10	...........
	664	13.3	7.74794E-001	2.96015E-006	0.00000E+000	7.75400E-001	8.41450E-005	10	...........
	668	13.38	7.70693E-001	2.29624E-006	0.00000E+000	7.71400E-001	8.00584E-005	10	...........
	672	13.46	7.66792E-001	1.84752E-006	0.00000E+000	7.67400E-001	8.00584E-005	10	...........
	676	13.54	7.62678E-001	7.94933E-007	0.00000E+000	7.63400E-001	8.25604E-005	10	...........
	680	13.62	7.58809E-001	1.36543E-006	0.00000E+000	7.59400E-001	8.57297E-005	10	...........
	684	13.7	7.54734E-001	7.56567E-007	0.00000E+000	7.55400E-001	8.43953E-005	10	...........
	688	13.78	7.50792E-001	1.76244E-006	0.00000E+000	7.51400E-001	8.75645E-005	10	...........
	692	13.86	7.46679E-001	9.00025E-007	0.00000E+000	7.47400E-001	9.19848E-005	10	...........
	696	13.94	7.42794E-001	1.42538E-008	0.00000E+000	7.43400E-001	8.68973E-005	10	...........
	700	14.02	7.38719E-001	-7.94784E-007	0.00000E+000	7.39400E-001	8.42284E-005	10	...........
	704	14.1	7.34799E-001	-1.25518E-006	0.00000E+000	7.35400E-001	8.95661E-005	10	...........
	708	14.18	7.30683E-001	-1.80066E-006	0.00000E+000	7.31400E-001	8.26438E-005	10	...........
	712	14.26	7.26800E-001	-1.86905E-006	0.00000E+000	7.27400E-001	8.76479E-005	10	...........
	716	14.34	7.22739E-001	-1.87572E-006	0.00000E+000	7.23400E-001	8.99832E-005	10	...........
	720	14.42	7.18801E-001	-2.19934E-006	0.00000E+000	7.19400E-001	8.41450E-005	10	...........
	724	14.5	7.14747E-001	-1.58714E-006	0.00000E+000	7.15400E-001	8.68973E-005	10	...........
	728	14.58	7.10830E-001	-1.66554E-006	0.00000E+000	7.11400E-001	8.14762E-005	10	...........
	732	14.66	7.06690E-001	-1.83235E-006	0.00000E+000	7.07400E-001	8.34778E-005	10	...........
	736	14.74	7.02804E-001	-2.08424E-006	0.00000E+000	7.03400E-001	8.08090E-005	10	...........
	740	14.82	6.98770E-001	-2.42120E-006	0.00000E+000	6.99400E-001	8.16430E-005	10	...........
	744	14.9	6.94817E-001	-3.53550E-006	0.00000E+000	6.95400E-001	8.23936E-005	10	...........
	748	14.98	6.90770E-001	-3.89748E-006	0.00000E+000	6.91400E-001	7.83069E-005	10	...........
	752	15.06	6.86847E-001	-3.45710E-006	0.00000E+000	6.87400E-001	8.08090E-005	10	...........
	756	15.14	6.82680E-001	-4.26948E-006	0.00000E+000	6.83400E-001	8.73977E-005	10	...........
	760	15.22	6.78816E-001	-3.61557E-006	0.00000E+000	6.79400E-001	7.98082E-005	10	...........
	764	15.3	6.74786E-001	-2.76483E-006	0.00000E+000	6.75400E-001	7.81401E-005	10	...........
	768	15.38	6.70835E-001	-2.53964E-006	0.00000E+000	6.71400E-001	8.09758E-005	10	...........
	772	15.46	6.66760E-001	-2.27607E-006	0.00000E+000	6.67400E-001	7.80567E-005	10	...........
	776	15.54	6.62832E-001	-2.49627E-006	0.00000E+000	6.63400E-001	7.89741E-005	10	...........
	780	15.62	6.58719E-001	-2.74482E-006	0.00000E+000	6.59400E-001	7.93078E-005	10	...........
	784	15.7	6.54818E-001	-3.69397E-006	0.00000E+000	6.55400E-001	8.56463E-005	10	...........
	788	15.78	6.50810E-001	-3.85745E-006	0.00000E+000	6.51400E-001	8.48123E-005	10	...........
	792	15.86	6.46836E-001	-3.73401E-006	0.00000E+000	6.47400E-001	8.04754E-005	10	...........
	796	15.94	6.42778E-001	-3.86412E-006	0.00000E+000	6.43400E-001	8.77313E-005	10	...........
	800	16.02	6.38850E-001	-4.48133E-006	0.00000E+000	6.39400E-001	8.25604E-005	10	...........
	804	16.1	6.34781E-001	-4.37123E-006	0.00000E+000	6.35400E-001	8.38114E-005	10	...........
	808	16.18	6.30845E-001	-3.28529E-006	0.00000E+000	6.31400E-001	8.34778E-005	10	...........
	812	16.26	6.26811E-001	-2.89495E-006	0.00000E+000	6.27400E-001	8.17264E-005	10	...........
	816	16.34	6.22879E-001	-2.82822E-006	0.00000E+000	6.23400E-001	8.37280E-005	10	...........
	820	16.42	6.18813E-001	-3.62058E-006	0.00000E+000	6.19400E-001	8.59799E-005	10	...........
	824	16.5	6.14850E-001	-3.63893E-006	0.00000E+000	6.15400E-001	8.61467E-005	10	...........
	828	16.58	6.10866E-001	-3.85912E-006	0.00000E+000	6.11400E-001	8.48123E-005	10	...........
	832	16.66	6.06895E-001	-4.05429E-006	0.00000E+000	6.07400E-001	9.06504E-005	10	...........
	836	16.74	6.02821E-001	-4.19107E-006	0.00000E+000	6.03400E-001	8.88155E-005	10	...........
	840	16.82	5.98925E-001	-4.26614E-006	0.00000E+000	5.99400E-001	8.75645E-005	10	...........
	844	16.9	5.94890E-001	-3.82576E-006	0.00000E+000	5.95400E-001	8.93993E-005	10	...........
	848	16.98	5.90914E-001	-4.69985E-006	0.00000E+000	5.91400E-001	8.54795E-005	10	...........
	852	17.06	5.86915E-001	-3.70065E-006	0.00000E+000	5.87400E-001	8.98998E-005	10	...........
	856	17.14	5.82933E-001	-3.43875E-006	0.00000E+000	5.83400E-001	9.12342E-005	10	...........
	860	17.22	5.78909E-001	-2.52295E-006	0.00000E+000	5.79400E-001	9.25686E-005	10	...........
	864	17.3	5.74929E-001	-2.90495E-006	0.00000E+000	5.75400E-001	8.47289E-005	10	...........
	868	17.38	5.70930E-001	-3.30864E-006	0.00000E+000	5.71400E-001	8.39782E-005	10	...........
	872	17.46	5.66934E-001	-4.16438E-006	0.00000E+000	5.67400E-001	8.14762E-005	10	...........
	876	17.54	5.62914E-001	-3.78572E-006	0.00000E+000	5.63400E-001	8.35612E-005	10	...........
	880	17.62	5.58936E-001	-3.44876E-006	0.00000E+000	5.59400E-001	8.09758E-005	10	...........
	884	17.7	5.54867E-001	-3.58388E-006	0.00000E+000	5.55400E-001	8.36446E-005	10	...........
	888	17.78	5.50933E-001	-3.59889E-006	0.00000E+000	5.51400E-001	8.42284E-005	10	...........
	892	17.86	5.46915E-001	-3.88080E-006	0.00000E+000	5.47400E-001	9.21516E-005	10	...........
	896	17.94	5.42941E-001	-2.49460E-006	0.00000E+000	5.43400E-001	8.73977E-005	10	...........
	900	18.02	5.38907E-001	-3.66895E-006	0.00000E+000	5.39400E-001	8.94827E-005	10	...........
	904	18.1	5.34966E-001	-3.78072E-006	0.00000E+000	5.35400E-001	8.98998E-005	10	...........
	908	18.18	5.30959E-001	-3.39205E-006	0.00000E+000	5.31400E-001	8.38114E-005	10	...........
	912	18.26	5.26962E-001	-4.23111E-006	0.00000E+000	5.27400E-001	7.80567E-005	10	...........
	916	18.34	5.22932E-001	-4.56974E-006	0.00000E+000	5.23400E-001	8.57297E-005	10	...........
	920	18.42	5.18960E-001	-4.94840E-006	0.00000E+000	5.19400E-001	8.55629E-005	10	...........
	924	18.5	5.14941E-001	-4.66315E-006	0.00000E+000	5.15400E-001	8.45620E-005	10	...........
	928	18.58	5.10991E-001	-4.70819E-006	0.00000E+000	5.11400E-001	8.54795E-005	10	...........
	932	18.66	5.07004E-001	-4.40626E-006	0.00000E+000	5.07400E-001	8.30608E-005	10	...........
	936	18.74	5.02987E-001	-4.80995E-006	0.00000E+000	5.03400E-001	8.90657E-005	10	...........
	940	18.82	4.98962E-001	-4.04428E-006	0.00000E+000	4.99400E-001	8.74811E-005	10	...........
	944	18.9	4.94989E-001	-4.86833E-006	0.00000E+000	4.95400E-001	8.46455E-005	10	...........
	948	18.98	4.90974E-001	-4.55306E-006	0.00000E+000	4.91400E-001	9.11508E-005	10	...........
	952	19.06	4.86989E-001	-4.88835E-006	0.00000E+000	4.87400E-001	8.66471E-005	10	...........
	956	19.14	4.83021E-001	-4.66148E-006	0.00000E+000	4.83400E-001	8.88989E-005	10	...........
	960	19.22	4.79018E-001	-5.44884E-006	0.00000E+000	4.79400E-001	8.78147E-005	10	...........
	964	19.3	4.74992E-001	-5.68905E-006	0.00000E+000	4.75400E-001	8.53127E-005	10	...........
	968	19.38	4.71012E-001	-5.83918E-006	0.00000E+000	4.71400E-001	8.91491E-005	10	...........
	972	19.46	4.67001E-001	-6.12276E-006	0.00000E+000	4.67400E-001	8.52293E-005	10	...........
	976	19.54	4.63021E-001	-6.38298E-006	0.00000E+000	4.63400E-001	8.45620E-005	10	...........
	980	19.62	4.59008E-001	-5.31372E-006	0.00000E+000	4.59400E-001	8.08924E-005	10	...........
	984	19.7	4.55044E-001	-4.29617E-006	0.00000E+000	4.55400E-001	8.00584E-005	10	...........
	988	19.78	4.50979E-001	-4.88668E-006	0.00000E+000	4.51400E-001	8.15596E-005	10	...........
	992	19.86	4.47014E-001	-5.83250E-006	0.00000E+000	4.47400E-001	8.11426E-005	10	...........
	996	19.94	4.43016E-001	-5.95761E-006	0.00000E+000	4.43400E-001	7.81401E-005	10	...........
	1000	20.02	4.39024E-001	-6.17280E-006	0.00000E+000	4.39400E-001	8.07256E-005	10	...........
	1004	20.1	4.35043E-001	-6.58816E-006	0.00000E+000	4.35400E-001	8.18098E-005	10	...........
	1008	20.18	4.31081E-001	-6.49808E-006	0.00000E+000	4.31400E-001	8.53961E-005	10	...........
	1012	20.26	4.27029E-001	-6.87841E-006	0.00000E+000	4.27400E-001	8.46455E-005	10	...........
	1016	20.34	4.22995E-001	-7.15032E-006	0.00000E+000	4.23400E-001	9.22350E-005	10	...........
	1020	20.42	4.19017E-001	-7.03188E-006	0.00000E+000	4.19400E-001	8.47289E-005	10	...........
	1024	20.5	4.15036E-001	-6.54145E-006	0.00000E+000	4.15400E-001	8.05588E-005	10	...........
	1028	20.58	4.11023E-001	-5.86920E-006	0.00000E+000	4.11400E-001	7.99750E-005	10	...........
	1032	20.66	4.07116E-001	-6.08272E-006	0.00000E+000	4.07400E-001	8.28940E-005	10	...........
	1036	20.74	4.03069E-001	-7.22538E-006	0.00000E+000	4.03400E-001	8.14762E-005	10	...........
	1040	20.82	3.99061E-001	-7.78253E-006	0.00000E+000	3.99400E-001	8.28106E-005	10	...........
	1044	20.9	3.95043E-001	-7.33214E-006	0.00000E+000	3.95400E-001	8.03086E-005	10	...........
	1048	20.98	3.91079E-001	-7.96770E-006	0.00000E+000	3.91400E-001	8.45620E-005	10	...........
	1052	21.06	3.87065E-001	-7.92766E-006	0.00000E+000	3.87400E-001	8.39782E-005	10	...........
	1056	21.14	3.83136E-001	-7.41054E-006	0.00000E+000	3.83400E-001	7.94746E-005	10	...........
	1060	21.22	3.79121E-001	-7.94101E-006	0.00000E+000	3.79400E-001	7.48041E-005	10	...........
	1064	21.3	3.75112E-001	-7.58570E-006	0.00000E+000	3.75400E-001	7.66389E-005	10	...........
	1068	21.38	3.71092E-001	-6.87675E-006	0.00000E+000	3.71400E-001	7.80567E-005	10	...........
	1072	21.46	3.67106E-001	-6.82003E-006	0.00000E+000	3.67400E-001	7.70559E-005	10	...........
	1076	21.54	3.63080E-001	-8.21458E-006	0.00000E+000	3.63400E-001	7.84737E-005	10	...........
	1080	21.62	3.59104E-001	-8.46646E-006	0.00000E+000	3.59400E-001	8.09758E-005	10	...........
	1084	21.7	3.55133E-001	-8.91852E-006	0.00000E+000	3.55400E-001	8.33944E-005	10	...........
	1088	21.78	3.51118E-001	-9.20711E-006	0.00000E+000	3.51400E-001	7.81401E-005	10	...........
	1092	21.86	3.47131E-001	-9.07366E-006	0.00000E+000	3.47400E-001	7.96414E-005	10	...........
	1096	21.94	3.43115E-001	-9.49069E-006	0.00000E+000	3.43400E-001	7.85571E-005	10	...........
	1100	22.02	3.39098E-001	-9.45733E-006	0.00000E+000	3.39400E-001	7.71393E-005	10	...........
	1104	22.1	3.35123E-001	-9.39561E-006	0.00000E+000	3.35400E-001	7.69725E-005	10	...........
	1108	22.18	3.31164E-001	-8.56488E-006	0.00000E+000	3.31400E-001	7.97248E-005	10	...........
	1112	22.26	3.27138E-001	-9.26382E-006	0.00000E+000	3.27400E-001	7.65555E-005	10	...........
	1116	22.34	3.23165E-001	-8.50483E-006	0.00000E+000	3.23400E-001	8.37280E-005	10	...........
	1120	22.42	3.19123E-001	-9.87435E-006	0.00000E+000	3.19400E-001	8.13928E-005	10	...........
	1124	22.5	3.15130E-001	-9.97945E-006	0.00000E+000	3.15400E-001	8.12260E-005	10	...........
	1128	22.58	3.11143E-001	-1.08585E-005	0.00000E+000	3.11400E-001	8.51459E-005	10	...........
	1132	22.66	3.07165E-001	-1.05499E-005	0.00000E+000	3.07400E-001	8.43953E-005	10	...........
	1136	22.74	3.03189E-001	-1.06584E-005	0.00000E+000	3.03400E-001	7.95580E-005	10	...........
	1140	22.82	2.99137E-001	-1.13240E-005	0.00000E+000	2.99400E-001	7.78899E-005	10	...........
	1144	22.9	2.95101E-001	-1.15775E-005	0.00000E+000	2.95400E-001	8.06422E-005	10	...........
	1148	22.98	2.91153E-001	-1.14040E-005	0.00000E+000	2.91400E-001	7.80567E-005	10	...........
	1152	23.06	2.87164E-001	-1.08352E-005	0.00000E+000	2.87400E-001	7.36364E-005	10	...........
	1156	23.14	2.83212E-001	-1.10821E-005	0.00000E+000	2.83400E-001	8.32276E-005	10	...........
	1160	23.22	2.79192E-001	-1.07635E-005	0.00000E+000	2.79400E-001	7.15514E-005	10	...........
	1164	23.3	2.75214E-001	-1.28253E-005	0.00000E+000	2.75400E-001	7.51377E-005	10	...........
	1168	23.38	2.71167E-001	-1.27719E-005	0.00000E+000	2.71400E-001	7.81401E-005	10	...........
	1172	23.46	2.67167E-001	-1.33908E-005	0.00000E+000	2.67400E-001	6.81320E-005	10	...........
	1176	23.54	2.63180E-001	-1.30655E-005	0.00000E+000	2.63400E-001	7.33028E-005	10	...........
	1180	23.62	2.59183E-001	-1.37527E-005	0.00000E+000	2.59400E-001	8.12260E-005	10	...........
	1184	23.7	2.55191E-001	-1.41464E-005	0.00000E+000	2.55400E-001	7.54713E-005	10	...........
	1188	23.78	2.51246E-001	-1.44000E-005	0.00000E+000	2.51400E-001	7.98916E-005	10	...........
	1192	23.86	2.47176E-001	-1.43783E-005	0.00000E+000	2.47400E-001	8.04754E-005	10	...........
	1196	23.94	2.43173E-001	-1.39579E-005	0.00000E+000	2.43400E-001	7.99750E-005	10	...........
	1200	24.02	2.39205E-001	-1.42548E-005	0.00000E+000	2.39400E-001	8.44786E-005	10	...........
	1204	24.1	2.35183E-001	-1.43583E-005	0.00000E+000	2.35400E-001	7.73895E-005	10	...........
	1208	24.18	2.31186E-001	-1.58963E-005	0.00000E+000	2.31400E-001	8.36446E-005	10	...........
	1212	24.26	2.27255E-001	-1.67070E-005	0.00000E+000	2.27400E-001	7.78065E-005	10	...........
	1216	24.34	2.23207E-001	-1.65852E-005	0.00000E+000	2.23400E-001	7.84737E-005	10	...........
	1220	24.42	2.19528E-001	-1.69889E-005	0.00000E+000	2.19400E-001	7.35530E-005	10	...........
	1224	24.5	2.15224E-001	-1.66936E-005	0.00000E+000	2.15400E-001	7.96414E-005	10	...........
	1228	24.58	2.11203E-001	-1.74910E-005	0.00000E+000	2.11400E-001	7.62219E-005	10	...........
	1232	24.66	2.07204E-001	-1.81983E-005	0.00000E+000	2.07400E-001	8.20600E-005	10	...........
	1236	24.74	2.03278E-001	-1.80198E-005	0.00000E+000	2.03400E-001	7.98916E-005	10	...........
	1240	24.82	1.99239E-001	-1.78596E-005	0.00000E+000	1.99400E-001	8.04754E-005	10	...........
	1244	24.9	1.95383E-001	-1.84335E-005	0.00000E+000	1.95400E-001	7.90576E-005	10	...........
	1248	24.98	1.91251E-001	-1.91441E-005	0.00000E+000	1.91400E-001	7.74729E-005	10	...........
	1252	25.06	1.87284E-001	-2.03034E-005	0.00000E+000	1.87400E-001	7.77231E-005	10	...........
	1256	25.14	1.83250E-001	-2.07638E-005	0.00000E+000	1.83400E-001	7.80567E-005	10	...........
	1260	25.22	1.79373E-001	-2.00966E-005	0.00000E+000	1.79400E-001	8.02252E-005	10	...........
	1264	25.3	1.75272E-001	-2.16496E-005	0.00000E+000	1.75400E-001	7.58049E-005	10	...........
	1268	25.38	1.71317E-001	-2.23852E-005	0.00000E+000	1.71400E-001	7.49709E-005	10	...........
	1272	25.46	1.67238E-001	-2.25304E-005	0.00000E+000	1.67400E-001	8.39782E-005	10	...........
	1276	25.54	1.63282E-001	-2.35963E-005	0.00000E+000	1.63400E-001	8.10592E-005	10	...........
	1280	25.62	1.59277E-001	-2.28023E-005	0.00000E+000	1.59400E-001	7.99750E-005	10	...........
	1284	25.7	1.55386E-001	-2.30909E-005	0.00000E+000	1.55400E-001	7.77231E-005	10	...........
	1288	25.78	1.51284E-001	-2.40901E-005	0.00000E+000	1.51400E-001	7.48875E-005	10	...........
	1292	25.86	1.47411E-001	-2.55647E-005	0.00000E+000	1.47400E-001	7.65555E-005	10	...........
	1296	25.94	1.43265E-001	-2.59483E-005	0.00000E+000	1.43400E-001	7.53879E-005	10	...........
	1300	26.02	1.39273E-001	-2.68792E-005	0.00000E+000	1.39400E-001	7.88907E-005	10	...........
	1304	26.1	1.35275E-001	-2.68241E-005	0.00000E+000	1.35400E-001	8.32276E-005	10	...........
	1308	26.18	1.31350E-001	-2.75314E-005	0.00000E+000	1.31400E-001	7.31360E-005	10	...........
	1312	26.26	1.27306E-001	-2.88225E-005	0.00000E+000	1.27400E-001	8.04754E-005	10	...........
	1316	26.34	1.23494E-001	-2.94547E-005	0.00000E+000	1.23400E-001	7.88907E-005	10	...........
	1320	26.42	1.19323E-001	-2.99518E-005	0.00000E+000	1.19400E-001	8.00584E-005	10	...........
	1324	26.5	1.15301E-001	-3.00219E-005	0.00000E+000	1.15400E-001	8.35612E-005	10	...........
	1328	26.58	1.11304E-001	-3.05707E-005	0.00000E+000	1.11400E-001	7.97248E-005	10	...........
	1332	26.66	1.07354E-001	-3.19919E-005	0.00000E+000	1.07400E-001	8.41450E-005	10	...........
	1336	26.74	1.03305E-001	-3.36634E-005	0.00000E+000	1.03400E-001	8.38114E-005	10	...........
	1340	26.82	9.95338E-002	-3.42172E-005	0.00000E+000	9.94000E-002	8.86487E-005	10	...........
	1344	26.9	9.53393E-002	-3.60321E-005	0.00000E+000	9.54000E-002	7.83903E-005	10	...........
	1348	26.98	9.15777E-002	-3.62723E-005	0.00000E+000	9.14000E-002	9.09840E-005	10	...........
	1352	27.06	8.73530E-002	-3.78704E-005	0.00000E+000	8.74000E-002	8.85653E-005	10	...........
	1356	27.14	8.34328E-002	-3.93250E-005	0.00000E+000	8.34000E-002	8.28106E-005	10	...........
	1360	27.22	7.93412E-002	-4.10698E-005	0.00000E+000	7.94000E-002	8.48123E-005	10	...........
	1364	27.3	7.55577E-002	-4.15619E-005	0.00000E+000	7.54000E-002	8.15596E-005	10	...........
	1368	27.38	7.13560E-002	-4.24027E-005	0.00000E+000	7.14000E-002	8.25604E-005	10	...........
	1372	27.46	6.75546E-002	-4.40758E-005	0.00000E+000	6.74000E-002	7.88073E-005	10	...........
	1376	27.54	6.33546E-002	-4.64679E-005	0.00000E+000	6.34000E-002	8.11426E-005	10	...........
	1380	27.62	5.94522E-002	-4.86781E-005	0.00000E+000	5.94000E-002	8.08090E-005	10	...........
	1384	27.7	5.53743E-002	-5.00310E-005	0.00000E+000	5.54000E-002	8.61467E-005	10	...........
	1388	27.78	5.15282E-002	-5.19043E-005	0.00000E+000	5.14000E-002	8.04754E-005	10	...........
	1392	27.86	4.73626E-002	-5.37075E-005	0.00000E+000	4.74000E-002	7.98916E-005	10	...........
	1396	27.94	4.35099E-002	-5.60329E-005	0.00000E+000	4.34000E-002	7.78899E-005	10	...........
	1400	28.02	3.93052E-002	-5.91206E-005	0.00000E+000	3.94000E-002	8.28940E-005	10	...........
	1404	28.1	3.54305E-002	-6.21615E-005	0.00000E+000	3.54000E-002	7.90576E-005	10	...........
	1408	28.18	3.13837E-002	-6.37646E-005	0.00000E+000	3.14000E-002	8.23102E-005	10	...........
	1412	28.26	2.75565E-002	-6.61317E-005	0.00000E+000	2.74000E-002	8.51459E-005	10	...........
	1416	28.34	2.33755E-002	-6.85771E-005	0.00000E+000	2.34000E-002	8.04754E-005	10	...........
	1420	28.42	1.95698E-002	-7.44939E-005	0.00000E+000	1.94000E-002	7.80567E-005	10	...........
	1424	28.5	1.53792E-002	-7.76267E-005	0.00000E+000	1.54000E-002	8.28940E-005	10	...........
	1428	28.58	1.13963E-002	-8.19571E-005	0.00000E+000	1.14000E-002	7.75563E-005	10	...........
	1432	28.66	7.38577E-003	-8.46478E-005	0.00000E+000	7.40001E-003	8.23102E-005	10	...........
	1436	28.74	3.52778E-003	-8.93736E-005	0.00000E+000	3.40001E-003	8.63969E-005	10	...........
	1440	28.82	-5.79915E-004	-9.50986E-005	0.00000E+000	-5.99995E-004	7.79733E-005	10	...........
	1444	28.9	-4.40696E-003	-1.00715E-004	0.00000E+000	-4.60000E-003	7.47207E-005	10	...........
	1448	28.98	-8.59372E-003	-1.06625E-004	0.00000E+000	-8.60000E-003	7.73895E-005	10	...........
	1452	29.06	-1.24945E-002	-1.10405E-004	0.00000E+000	-1.26000E-002	8.79815E-005	10	...........
	1456	29.14	-1.65563E-002	-1.15762E-004	0.00000E+000	-1.66000E-002	8.38948E-005	10	...........
	1460	29.22	-2.04362E-002	-1.21076E-004	0.00000E+000	-2.06000E-002	8.08924E-005	10	...........
	1464	29.3	-2.45810E-002	-1.30745E-004	0.00000E+000	-2.46000E-002	8.15596E-005	10	...........
	1468	29.38	-2.84050E-002	-1.36560E-004	0.00000E+000	-2.86000E-002	8.05588E-005	10	...........
	1472	29.46	-3.25761E-002	-1.42516E-004	0.00000E+000	-3.26000E-002	8.08090E-005	10	...........
	1476	29.54	-3.64238E-002	-1.50217E-004	0.00000E+000	-3.66000E-002	7.88073E-005	10	...........
	1480	29.62	-4.04966E-002	-1.57073E-004	0.00000E+000	-4.06000E-002	7.98082E-005	10	...........
	1484	29.7	-4.44213E-002	-1.65113E-004	0.00000E+000	-4.46000E-002	8.30608E-005	10	...........
	1488	29.78	-4.85385E-002	-1.72037E-004	0.00000E+000	-4.86000E-002	8.80649E-005	10	...........
	1492	29.86	-5.24073E-002	-1.77153E-004	0.00000E+000	-5.26000E-002	8.43118E-005	10	...........
	1496	29.94	-5.65527E-002	-1.81517E-004	0.00000E+000	-5.66000E-002	8.31442E-005	10	...........
	1500	30.02	-6.04041E-002	-1.85412E-004	0.00000E+000	-6.06000E-002	8.99832E-005	10	...........
	1504	30.1	-6.45296E-002	-1.89406E-004	0.00000E+000	-6.46000E-002	8.41450E-005	10	...........
	1508	30.18	-6.84235E-002	-1.94133E-004	0.00000E+000	-6.86000E-002	8.61467E-005	10	...........
	1512	30.26	-7.25417E-002	-1.95272E-004	0.00000E+000	-7.26000E-002	8.31442E-005	10	...........
	1516	30.34	-7.64005E-002	-1.96750E-004	0.00000E+000	-7.66000E-002	7.88073E-005	10	...........
	1520	30.42	-8.05311E-002	-1.98205E-004	0.00000E+000	-8.06000E-002	8.33944E-005	10	...........
	1524	30.5	-8.44024E-002	-1.99188E-004	0.00000E+000	-8.46000E-002	8.72309E-005	10	...........
	1528	30.58	-8.85462E-002	-2.00000E-004	0.00000E+000	-8.86000E-002	8.36446E-005	10	...........
	1532	30.66	-9.24311E-002	-1.99204E-004	0.00000E+000	-9.26000E-002	8.30608E-005	10	...........
	1536	30.74	-9.65015E-002	-1.98695E-004	0.00000E+000	-9.66000E-002	8.29774E-005	10	...........
	1540	30.82	-1.00399E-001	-1.95554E-004	0.00000E+000	-1.00600E-001	8.38948E-005	10	...........
	1544	30.9	-1.04507E-001	-1.93276E-004	0.00000E+000	-1.04600E-001	8.46455E-005	10	...........
	1548	30.98	-1.08395E-001	-1.92231E-004	0.00000E+000	-1.08600E-001	8.87321E-005	10	...........
	1552	31.06	-1.12534E-001	-1.90308E-004	0.00000E+000	-1.12600E-001	8.43953E-005	10	...........
	1556	31.14	-1.16440E-001	-1.88115E-004	0.00000E+000	-1.16600E-001	8.39782E-005	10	...........
	1560	31.22	-1.20474E-001	-1.85023E-004	0.00000E+000	-1.20600E-001	8.08924E-005	10	...........
	1564	31.3	-1.24395E-001	-1.83581E-004	0.00000E+000	-1.24600E-001	8.29774E-005	10	...........
	1568	31.38	-1.28452E-001	-1.80691E-004	0.00000E+000	-1.28600E-001	8.21434E-005	10	...........
	1572	31.46	-1.32388E-001	-1.79068E-004	0.00000E+000	-1.32600E-001	8.23102E-005	10	...........
	1576	31.54	-1.36543E-001	-1.76655E-004	0.00000E+000	-1.36600E-001	8.80649E-005	10	...........
	1580	31.62	-1.40409E-001	-1.72282E-004	0.00000E+000	-1.40600E-001	8.63135E-005	10	...........
	1584	31.7	-1.44460E-001	-1.69135E-004	0.00000E+000	-1.44600E-001	7.78065E-005	10	...........
[...]
	13586	271.74	-2.52736E-001	-2.85389E-005	0.00000E+000	-2.53000E-001	8.34778E-005	10	...........
	13588	271.78	-2.50757E-001	-2.87708E-005	0.00000E+000	-2.51000E-001	8.85653E-005	10	...........
	13590	271.82	-2.48773E-001	-2.79251E-005	0.00000E+000	-2.49000E-001	7.98916E-005	10	...........
	13592	271.86	-2.46812E-001	-2.84572E-005	0.00000E+000	-2.47000E-001	8.00584E-005	10	...........
	13594	271.9	-2.44808E-001	-2.84155E-005	0.00000E+000	-2.45000E-001	7.58883E-005	10	...........
	13596	271.94	-2.42782E-001	-2.89009E-005	0.00000E+000	-2.43000E-001	7.66389E-005	10	...........
	13598	271.98	-2.40785E-001	-2.75781E-005	0.00000E+000	-2.41000E-001	7.54713E-005	10	...........
	13600	272.02	-2.38845E-001	-2.86941E-005	0.00000E+000	-2.39000E-001	8.18098E-005	10	...........
	13602	272.06	-2.36681E-001	-2.82687E-005	0.00000E+000	-2.37000E-001	7.93078E-005	10	...........
	13604	272.1	-2.34751E-001	-2.82620E-005	0.00000E+000	-2.35000E-001	8.24770E-005	10	...........
	13606	272.14	-2.32762E-001	-2.82470E-005	0.00000E+000	-2.33000E-001	7.92243E-005	10	...........
	13608	272.18	-2.30785E-001	-2.78767E-005	0.00000E+000	-2.31000E-001	8.38114E-005	10	...........
	13610	272.22	-2.28691E-001	-2.78767E-005	0.00000E+000	-2.29000E-001	7.80567E-005	10	...........
	13612	272.26	-2.26748E-001	-2.72578E-005	0.00000E+000	-2.27000E-001	8.07256E-005	10	...........
	13614	272.3	-2.24781E-001	-2.75247E-005	0.00000E+000	-2.25000E-001	7.71393E-005	10	...........
	13616	272.34	-2.22820E-001	-2.75331E-005	0.00000E+000	-2.23000E-001	8.26438E-005	10	...........
	13618	272.38	-2.20806E-001	-2.84439E-005	0.00000E+000	-2.21000E-001	7.78899E-005	10	...........
	13620	272.42	-2.18802E-001	-2.81052E-005	0.00000E+000	-2.19000E-001	7.98916E-005	10	...........
	13622	272.46	-2.16857E-001	-2.79284E-005	0.00000E+000	-2.17000E-001	8.13928E-005	10	...........
	13624	272.5	-2.14858E-001	-2.80685E-005	0.00000E+000	-2.15000E-001	7.63053E-005	10	...........
	13626	272.54	-2.12807E-001	-2.84889E-005	0.00000E+000	-2.13000E-001	8.02252E-005	10	...........
	13628	272.58	-2.10781E-001	-2.80051E-005	0.00000E+000	-2.11000E-001	8.58131E-005	10	...........
	13630	272.62	-2.08789E-001	-2.71244E-005	0.00000E+000	-2.09000E-001	7.83069E-005	10	...........
	13632	272.66	-2.06828E-001	-2.75798E-005	0.00000E+000	-2.07000E-001	8.18098E-005	10	...........
	13634	272.7	-2.04781E-001	-2.72878E-005	0.00000E+000	-2.05000E-001	7.90576E-005	10	...........
	13636	272.74	-2.02789E-001	-2.74930E-005	0.00000E+000	-2.03000E-001	8.58965E-005	10	...........
	13638	272.78	-2.00804E-001	-2.61735E-005	0.00000E+000	-2.01000E-001	7.28858E-005	10	...........
	13640	272.82	-1.98855E-001	-2.76682E-005	0.00000E+000	-1.99000E-001	8.41450E-005	10	...........
	13642	272.86	-1.96837E-001	-2.67907E-005	0.00000E+000	-1.97000E-001	7.98916E-005	10	...........
	13644	272.9	-1.94819E-001	-2.78900E-005	0.00000E+000	-1.95000E-001	8.15596E-005	10	...........
	13646	272.94	-1.92863E-001	-2.78767E-005	0.00000E+000	-1.93000E-001	7.73895E-005	10	...........
	13648	272.98	-1.90909E-001	-2.78150E-005	0.00000E+000	-1.91000E-001	7.98082E-005	10	...........
	13650	273.02	-1.88786E-001	-2.76982E-005	0.00000E+000	-1.89000E-001	8.33944E-005	10	...........
	13652	273.06	-1.86807E-001	-2.70610E-005	0.00000E+000	-1.87000E-001	8.71475E-005	10	...........
	13654	273.1	-1.84827E-001	-2.72245E-005	0.00000E+000	-1.85000E-001	7.78899E-005	10	...........
	13656	273.14	-1.82879E-001	-2.68808E-005	0.00000E+000	-1.83000E-001	7.74729E-005	10	...........
	13658	273.18	-1.80833E-001	-2.68091E-005	0.00000E+000	-1.81000E-001	7.44705E-005	10	...........
	13660	273.22	-1.78814E-001	-2.66139E-005	0.00000E+000	-1.79000E-001	8.12260E-005	10	...........
	13662	273.26	-1.76816E-001	-2.70593E-005	0.00000E+000	-1.77000E-001	7.93912E-005	10	...........
	13664	273.3	-1.74854E-001	-2.69209E-005	0.00000E+000	-1.75000E-001	8.73143E-005	10	...........
	13666	273.34	-1.72856E-001	-2.68675E-005	0.00000E+000	-1.73000E-001	8.52293E-005	10	...........
	13668	273.38	-1.70818E-001	-2.74947E-005	0.00000E+000	-1.71000E-001	8.63969E-005	10	...........
	13670	273.42	-1.68857E-001	-2.70376E-005	0.00000E+000	-1.69000E-001	8.49791E-005	10	...........
	13672	273.46	-1.66895E-001	-2.67607E-005	0.00000E+000	-1.67000E-001	8.61467E-005	10	...........
	13674	273.5	-1.64859E-001	-2.65439E-005	0.00000E+000	-1.65000E-001	8.86487E-005	10	...........
	13676	273.54	-1.62815E-001	-2.64938E-005	0.00000E+000	-1.63000E-001	8.29774E-005	10	...........
	13678	273.58	-1.60854E-001	-2.65205E-005	0.00000E+000	-1.61000E-001	7.58883E-005	10	...........
	13680	273.62	-1.58912E-001	-2.64755E-005	0.00000E+000	-1.59000E-001	8.78981E-005	10	...........
	13682	273.66	-1.56866E-001	-2.55864E-005	0.00000E+000	-1.57000E-001	8.50625E-005	10	...........
	13684	273.7	-1.54801E-001	-2.63804E-005	0.00000E+000	-1.55000E-001	8.73143E-005	10	...........
	13686	273.74	-1.52845E-001	-2.62186E-005	0.00000E+000	-1.53000E-001	8.25604E-005	10	...........
	13688	273.78	-1.50888E-001	-2.64221E-005	0.00000E+000	-1.51000E-001	7.73061E-005	10	...........
	13690	273.82	-1.48888E-001	-2.61785E-005	0.00000E+000	-1.49000E-001	8.64803E-005	10	...........
	13692	273.86	-1.46820E-001	-2.63804E-005	0.00000E+000	-1.47000E-001	8.82317E-005	10	...........
	13694	273.9	-1.44870E-001	-2.63303E-005	0.00000E+000	-1.45000E-001	7.83069E-005	10	...........
	13696	273.94	-1.42881E-001	-2.52344E-005	0.00000E+000	-1.43000E-001	8.43118E-005	10	...........
	13698	273.98	-1.40894E-001	-2.59767E-005	0.00000E+000	-1.41000E-001	8.16430E-005	10	...........
	13700	274.02	-1.38821E-001	-2.51844E-005	0.00000E+000	-1.39000E-001	8.53127E-005	10	...........
	13702	274.06	-1.36855E-001	-2.50592E-005	0.00000E+000	-1.37000E-001	8.31442E-005	10	...........
	13704	274.1	-1.34912E-001	-2.41551E-005	0.00000E+000	-1.35000E-001	8.63135E-005	10	...........
	13706	274.14	-1.32768E-001	-2.49375E-005	0.00000E+000	-1.33000E-001	8.54795E-005	10	...........
	13708	274.18	-1.30815E-001	-2.54279E-005	0.00000E+000	-1.31000E-001	8.46455E-005	10	...........
	13710	274.22	-1.28844E-001	-2.57215E-005	0.00000E+000	-1.29000E-001	8.26438E-005	10	...........
	13712	274.26	-1.26940E-001	-2.56281E-005	0.00000E+000	-1.27000E-001	9.41532E-005	10	...........
	13714	274.3	-1.24899E-001	-2.52110E-005	0.00000E+000	-1.25000E-001	8.34778E-005	10	...........
	13716	274.34	-1.22828E-001	-2.47873E-005	0.00000E+000	-1.23000E-001	8.65637E-005	10	...........
	13718	274.38	-1.20884E-001	-2.38048E-005	0.00000E+000	-1.21000E-001	7.94746E-005	10	...........
	13720	274.42	-1.18908E-001	-2.51310E-005	0.00000E+000	-1.19000E-001	8.52293E-005	10	...........
	13722	274.46	-1.16930E-001	-2.39533E-005	0.00000E+000	-1.17000E-001	8.32276E-005	10	...........
	13724	274.5	-1.14854E-001	-2.44504E-005	0.00000E+000	-1.15000E-001	8.94827E-005	10	...........
	13726	274.54	-1.12905E-001	-2.37381E-005	0.00000E+000	-1.13000E-001	8.46455E-005	10	...........
	13728	274.58	-1.10947E-001	-2.42335E-005	0.00000E+000	-1.11000E-001	8.21434E-005	10	...........
	13730	274.62	-1.08907E-001	-2.46939E-005	0.00000E+000	-1.09000E-001	8.07256E-005	10	...........
	13732	274.66	-1.06819E-001	-2.46022E-005	0.00000E+000	-1.07000E-001	8.42284E-005	10	...........
	13734	274.7	-1.04869E-001	-2.43153E-005	0.00000E+000	-1.05000E-001	8.19766E-005	10	...........
	13736	274.74	-1.02926E-001	-2.46322E-005	0.00000E+000	-1.03000E-001	8.18098E-005	10	...........
	13738	274.78	-1.00925E-001	-2.36797E-005	0.00000E+000	-1.01000E-001	8.16430E-005	10	...........
	13740	274.82	-9.88270E-002	-2.28557E-005	0.00000E+000	-9.90000E-002	8.36446E-005	10	...........
	13742	274.86	-9.69151E-002	-2.37915E-005	0.00000E+000	-9.70000E-002	7.72227E-005	10	...........
	13744	274.9	-9.49393E-002	-2.34362E-005	0.00000E+000	-9.50000E-002	8.69807E-005	10	...........
	13746	274.94	-9.29410E-002	-2.38599E-005	0.00000E+000	-9.30000E-002	7.69725E-005	10	...........
	13748	274.98	-9.08881E-002	-2.38182E-005	0.00000E+000	-9.10000E-002	8.16430E-005	10	...........
	13750	275.02	-8.89441E-002	-2.32944E-005	0.00000E+000	-8.90000E-002	7.39701E-005	10	...........
	13752	275.06	-8.69792E-002	-2.40934E-005	0.00000E+000	-8.70000E-002	8.02252E-005	10	...........
	13754	275.1	-8.49179E-002	-2.36630E-005	0.00000E+000	-8.50000E-002	8.12260E-005	10	...........
	13756	275.14	-8.28231E-002	-2.40117E-005	0.00000E+000	-8.30000E-002	8.15596E-005	10	...........
	13758	275.18	-8.08864E-002	-2.33077E-005	0.00000E+000	-8.10000E-002	7.59717E-005	10	...........
	13760	275.22	-7.89665E-002	-2.32593E-005	0.00000E+000	-7.90000E-002	8.44786E-005	10	...........
	13762	275.26	-7.69082E-002	-2.25621E-005	0.00000E+000	-7.70000E-002	8.39782E-005	10	...........
	13764	275.3	-7.48264E-002	-2.29774E-005	0.00000E+000	-7.50000E-002	8.02252E-005	10	...........
	13766	275.34	-7.29225E-002	-2.21751E-005	0.00000E+000	-7.30000E-002	8.09758E-005	10	...........
	13768	275.38	-7.09551E-002	-2.29908E-005	0.00000E+000	-7.10000E-002	8.14762E-005	10	...........
	13770	275.42	-6.89426E-002	-2.25954E-005	0.00000E+000	-6.90000E-002	8.34778E-005	10	...........
	13772	275.46	-6.68800E-002	-2.29407E-005	0.00000E+000	-6.70000E-002	8.44786E-005	10	...........
	13774	275.5	-6.49280E-002	-2.22635E-005	0.00000E+000	-6.50000E-002	8.18098E-005	10	...........
	13776	275.54	-6.29825E-002	-2.28256E-005	0.00000E+000	-6.30000E-002	8.13094E-005	10	...........
	13778	275.58	-6.09915E-002	-2.26455E-005	0.00000E+000	-6.10000E-002	8.72309E-005	10	...........
	13780	275.62	-5.89015E-002	-2.27489E-005	0.00000E+000	-5.90000E-002	8.33110E-005	10	...........
	13782	275.66	-5.69359E-002	-2.25454E-005	0.00000E+000	-5.70000E-002	8.43118E-005	10	...........
	13784	275.7	-5.49814E-002	-2.14094E-005	0.00000E+000	-5.50000E-002	8.58131E-005	10	...........
	13786	275.74	-5.29475E-002	-2.22184E-005	0.00000E+000	-5.30000E-002	8.17264E-005	10	...........
	13788	275.78	-5.08307E-002	-2.11308E-005	0.00000E+000	-5.10000E-002	8.51459E-005	10	...........
	13790	275.82	-4.89281E-002	-2.15462E-005	0.00000E+000	-4.90000E-002	8.73143E-005	10	...........
	13792	275.86	-4.69659E-002	-2.16263E-005	0.00000E+000	-4.70000E-002	8.29774E-005	10	...........
	13794	275.9	-4.49501E-002	-2.18348E-005	0.00000E+000	-4.50000E-002	8.18098E-005	10	...........
	13796	275.94	-4.28613E-002	-2.12342E-005	0.00000E+000	-4.30000E-002	8.21434E-005	10	...........
	13798	275.98	-4.09235E-002	-2.08773E-005	0.00000E+000	-4.10000E-002	8.21434E-005	10	...........
	13800	276.02	-3.89673E-002	-2.15162E-005	0.00000E+000	-3.90000E-002	7.93078E-005	10	...........
	13802	276.06	-3.69914E-002	-2.08222E-005	0.00000E+000	-3.70000E-002	8.55629E-005	10	...........
	13804	276.1	-3.48293E-002	-2.08039E-005	0.00000E+000	-3.50000E-002	8.42284E-005	10	...........
	13806	276.14	-3.29337E-002	-1.97713E-005	0.00000E+000	-3.30000E-002	8.21434E-005	10	...........
	13808	276.18	-3.09830E-002	-2.04169E-005	0.00000E+000	-3.10000E-002	8.05588E-005	10	...........
	13810	276.22	-2.89584E-002	-1.94811E-005	0.00000E+000	-2.90000E-002	8.54795E-005	10	...........
	13812	276.26	-2.68399E-002	-1.99498E-005	0.00000E+000	-2.70000E-002	8.32276E-005	10	...........
	13814	276.3	-2.49691E-002	-2.00832E-005	0.00000E+000	-2.50000E-002	8.47289E-005	10	...........
	13816	276.34	-2.29851E-002	-2.05386E-005	0.00000E+000	-2.30000E-002	8.54795E-005	10	...........
	13818	276.38	-2.09675E-002	-1.98764E-005	0.00000E+000	-2.10000E-002	8.37280E-005	10	...........
	13820	276.42	-1.88705E-002	-2.02651E-005	0.00000E+000	-1.90000E-002	9.19014E-005	10	...........
	13822	276.46	-1.69704E-002	-1.97863E-005	0.00000E+000	-1.70000E-002	8.73143E-005	10	...........
	13824	276.5	-1.49714E-002	-1.87688E-005	0.00000E+000	-1.50000E-002	8.80649E-005	10	...........
	13826	276.54	-1.30107E-002	-1.90257E-005	0.00000E+000	-1.30000E-002	9.00666E-005	10	...........
	13828	276.58	-1.08728E-002	-1.85753E-005	0.00000E+000	-1.10000E-002	8.08924E-005	10	...........
	13830	276.62	-8.96536E-003	-1.89890E-005	0.00000E+000	-9.00000E-003	8.53127E-005	10	...........
	13832	276.66	-7.01009E-003	-1.80381E-005	0.00000E+000	-7.00000E-003	8.67305E-005	10	...........
	13834	276.7	-4.97418E-003	-1.84785E-005	0.00000E+000	-5.00000E-003	8.77313E-005	10	...........
	13836	276.74	-2.84060E-003	-1.83234E-005	0.00000E+000	-3.00000E-003	8.21434E-005	10	...........
	13838	276.78	-9.51636E-004	-1.84552E-005	0.00000E+000	-9.99995E-004	8.43118E-005	10	...........
	13840	276.82	9.37076E-004	-1.87137E-005	0.00000E+000	1.00000E-003	8.77313E-005	10	...........
	13842	276.86	2.92412E-003	-1.86286E-005	0.00000E+000	3.00001E-003	8.57297E-005	10	...........
	13844	276.9	5.06787E-003	-1.78396E-005	0.00000E+000	5.00000E-003	8.26438E-005	10	...........
	13846	276.94	6.97510E-003	-1.70556E-005	0.00000E+000	7.00001E-003	9.09840E-005	10	...........
	13848	276.98	8.93704E-003	-1.78096E-005	0.00000E+000	9.00000E-003	8.50625E-005	10	...........
	13850	277.02	1.09172E-002	-1.71073E-005	0.00000E+000	1.10000E-002	9.14010E-005	10	...........
	13852	277.06	1.29639E-002	-1.73375E-005	0.00000E+000	1.30000E-002	8.11426E-005	10	...........
	13854	277.1	1.49761E-002	-1.69605E-005	0.00000E+000	1.50000E-002	8.83985E-005	10	...........
	13856	277.14	1.69531E-002	-1.68454E-005	0.00000E+000	1.70000E-002	8.17264E-005	10	...........
	13858	277.18	1.89462E-002	-1.75327E-005	0.00000E+000	1.90000E-002	8.73143E-005	10	...........
	13860	277.22	2.11505E-002	-1.71290E-005	0.00000E+000	2.10000E-002	8.11426E-005	10	...........
	13862	277.26	2.29828E-002	-1.70256E-005	0.00000E+000	2.30000E-002	8.33110E-005	10	...........
	13864	277.3	2.49561E-002	-1.67103E-005	0.00000E+000	2.50000E-002	7.85571E-005	10	...........
	13866	277.34	2.69314E-002	-1.66269E-005	0.00000E+000	2.70000E-002	9.19014E-005	10	...........
	13868	277.38	2.90833E-002	-1.59613E-005	0.00000E+000	2.90000E-002	7.97248E-005	10	...........
	13870	277.42	3.09616E-002	-1.61281E-005	0.00000E+000	3.10000E-002	8.78981E-005	10	...........
	13872	277.46	3.29564E-002	-1.51957E-005	0.00000E+000	3.30000E-002	8.12260E-005	10	...........
	13874	277.5	3.49520E-002	-1.58863E-005	0.00000E+000	3.50000E-002	8.93993E-005	10	...........
	13876	277.54	3.69749E-002	-1.56010E-005	0.00000E+000	3.70000E-002	7.82235E-005	10	...........
	13878	277.58	3.89313E-002	-1.53258E-005	0.00000E+000	3.90000E-002	8.77313E-005	10	...........
	13880	277.62	4.09290E-002	-1.55493E-005	0.00000E+000	4.10000E-002	7.92243E-005	10	...........
	13882	277.66	4.28987E-002	-1.52924E-005	0.00000E+000	4.30000E-002	8.48957E-005	10	...........
	13884	277.7	4.51345E-002	-1.54142E-005	0.00000E+000	4.50000E-002	8.17264E-005	10	...........
	13886	277.74	4.69540E-002	-1.45468E-005	0.00000E+000	4.70000E-002	8.28940E-005	10	...........
	13888	277.78	4.89401E-002	-1.45251E-005	0.00000E+000	4.90000E-002	8.60633E-005	10	...........
	13890	277.82	5.09402E-002	-1.45718E-005	0.00000E+000	5.10000E-002	8.95661E-005	10	...........
	13892	277.86	5.31128E-002	-1.43449E-005	0.00000E+000	5.30000E-002	8.42284E-005	10	...........
	13894	277.9	5.49466E-002	-1.29721E-005	0.00000E+000	5.50000E-002	8.30608E-005	10	...........
	13896	277.94	5.69587E-002	-1.35175E-005	0.00000E+000	5.70000E-002	8.12260E-005	10	...........
	13898	277.98	5.89669E-002	-1.35876E-005	0.00000E+000	5.90000E-002	9.34026E-005	10	...........
	13900	278.02	6.09859E-002	-1.39379E-005	0.00000E+000	6.10000E-002	8.58965E-005	10	...........
	13902	278.06	6.29525E-002	-1.35325E-005	0.00000E+000	6.30000E-002	9.13176E-005	10	...........
	13904	278.1	6.48764E-002	-1.33324E-005	0.00000E+000	6.50000E-002	8.46455E-005	10	...........
	13906	278.14	6.68898E-002	-1.34358E-005	0.00000E+000	6.70000E-002	8.91491E-005	10	...........
	13908	278.18	6.90888E-002	-1.28269E-005	0.00000E+000	6.90000E-002	8.78981E-005	10	...........
	13910	278.22	7.09497E-002	-1.29670E-005	0.00000E+000	7.10000E-002	9.24018E-005	10	...........
	13912	278.26	7.29350E-002	-1.24416E-005	0.00000E+000	7.30000E-002	8.33944E-005	10	...........
	13914	278.3	7.49400E-002	-1.23181E-005	0.00000E+000	7.50000E-002	9.21516E-005	10	...........
	13916	278.34	7.71034E-002	-1.18327E-005	0.00000E+000	7.70000E-002	8.83985E-005	10	...........
	13918	278.38	7.89286E-002	-1.15458E-005	0.00000E+000	7.90000E-002	9.07338E-005	10	...........
	13920	278.42	8.09291E-002	-1.12155E-005	0.00000E+000	8.10000E-002	8.31442E-005	10	...........
	13922	278.46	8.29361E-002	-1.12422E-005	0.00000E+000	8.30000E-002	9.40698E-005	10	...........
	13924	278.5	8.50260E-002	-1.13673E-005	0.00000E+000	8.50000E-002	8.88155E-005	10	...........
	13926	278.54	8.69254E-002	-1.11805E-005	0.00000E+000	8.70000E-002	9.04836E-005	10	...........
	13928	278.58	8.89085E-002	-1.08769E-005	0.00000E+000	8.90000E-002	8.65637E-005	10	...........
	13930	278.62	9.08544E-002	-9.57743E-006	0.00000E+000	9.10000E-002	9.38196E-005	10	...........
	13932	278.66	9.31093E-002	-1.01996E-005	0.00000E+000	9.30000E-002	8.52293E-005	10	...........
	13934	278.7	9.49142E-002	-9.50403E-006	0.00000E+000	9.50000E-002	9.06504E-005	10	...........
	13936	278.74	9.69002E-002	-9.60245E-006	0.00000E+000	9.70000E-002	8.62301E-005	10	...........
	13938	278.78	9.88844E-002	-8.21124E-006	0.00000E+000	9.90000E-002	8.94827E-005	10	...........
	13940	278.82	1.01020E-001	-9.10202E-006	0.00000E+000	1.01000E-001	8.33944E-005	10	...........
	13942	278.86	1.02871E-001	-9.11703E-006	0.00000E+000	1.03000E-001	9.40698E-005	10	...........
	13944	278.9	1.04882E-001	-8.50817E-006	0.00000E+000	1.05000E-001	8.46455E-005	10	...........
	13946	278.94	1.06867E-001	-8.49149E-006	0.00000E+000	1.07000E-001	8.99832E-005	10	...........
	13948	278.98	1.08910E-001	-7.97270E-006	0.00000E+000	1.09000E-001	8.52293E-005	10	...........
	13950	279.02	1.10911E-001	-7.65409E-006	0.00000E+000	1.11000E-001	8.95661E-005	10	...........
	13952	279.06	1.12900E-001	-6.93346E-006	0.00000E+000	1.13000E-001	8.76479E-005	10	...........
	13954	279.1	1.14836E-001	-7.36050E-006	0.00000E+000	1.15000E-001	8.58131E-005	10	...........
	13956	279.14	1.17162E-001	-6.63153E-006	0.00000E+000	1.17000E-001	8.66471E-005	10	...........
	13958	279.18	1.18874E-001	-6.97350E-006	0.00000E+000	1.19000E-001	9.17346E-005	10	...........
	13960	279.22	1.20870E-001	-5.50055E-006	0.00000E+000	1.21000E-001	8.04754E-005	10	...........
	13962	279.26	1.22844E-001	-6.28957E-006	0.00000E+000	1.23000E-001	8.76479E-005	10	...........
	13964	279.3	1.25007E-001	-6.47139E-006	0.00000E+000	1.25000E-001	8.14762E-005	10	...........
	13966	279.34	1.26884E-001	-6.20283E-006	0.00000E+000	1.27000E-001	8.97329E-005	10	...........
	13968	279.38	1.28839E-001	-5.47719E-006	0.00000E+000	1.29000E-001	8.58965E-005	10	...........
	13970	279.42	1.30829E-001	-5.22197E-006	0.00000E+000	1.31000E-001	9.05670E-005	10	...........
	13972	279.46	1.32883E-001	-5.10854E-006	0.00000E+000	1.33000E-001	8.53127E-005	10	...........
	13974	279.5	1.34885E-001	-3.53550E-006	0.00000E+000	1.35000E-001	8.62301E-005	10	...........
	13976	279.54	1.36857E-001	-4.24612E-006	0.00000E+000	1.37000E-001	7.94746E-005	10	...........
	13978	279.58	1.38833E-001	-3.91583E-006	0.00000E+000	1.39000E-001	8.97329E-005	10	...........
	13980	279.62	1.40846E-001	-4.09766E-006	0.00000E+000	1.41000E-001	7.80567E-005	10	...........
	13982	279.66	1.42845E-001	-3.54718E-006	0.00000E+000	1.43000E-001	8.66471E-005	10	...........
	13984	279.7	1.44840E-001	-3.21522E-006	0.00000E+000	1.45000E-001	8.07256E-005	10	...........
	13986	279.74	1.46780E-001	-3.64727E-006	0.00000E+000	1.47000E-001	8.38114E-005	10	...........
	13988	279.78	1.49020E-001	-2.93665E-006	0.00000E+000	1.49000E-001	8.10592E-005	10	...........
	13990	279.82	1.50850E-001	-2.36282E-006	0.00000E+000	1.51000E-001	8.58965E-005	10	...........
	13992	279.86	1.52851E-001	-1.81901E-006	0.00000E+000	1.53000E-001	7.72227E-005	10	...........
	13994	279.9	1.54830E-001	-1.46370E-006	0.00000E+000	1.55000E-001	8.53961E-005	10	...........
	13996	279.94	1.56966E-001	-1.19513E-006	0.00000E+000	1.57000E-001	8.35612E-005	10	...........
	13998	279.98	1.58856E-001	-1.50207E-006	0.00000E+000	1.59000E-001	9.20682E-005	10	...........
	14000	280.02	1.60845E-001	-3.21038E-007	0.00000E+000	1.61000E-001	8.28106E-005	10	...........