File: 20191202/CVTESTKRISTALL5BOX4_2.DTA
EXPLAIN
TAG	CV
TITLE	LABEL	CV	Test &Identifier
DATE	LABEL	12/2/2019	Date
TIME	LABEL	9:54:40	Time
NOTES	NOTES	1	&Notes...

PSTAT	PSTAT	REF600-16093	Potentiostat
VINIT	POTEN	0.00000E+000	T	Initial &E (V)
VLIMIT1	POTEN	8.00000E-001	F	Scan Limit &1 (V)
VLIMIT2	POTEN	-5.00000E-001	F	Scan Limit &2 (V)
VFINAL	POTEN	0.00000E+000	T	Final &E (V)
SCANRATE	QUANT	4.99999E+001	&Scan Rate (mV/s)
STEPSIZE	QUANT	1.00000E+000	St&ep Size (mV)
CYCLES	IQUANT	5	C&ycles (#)
IMODE	SELECTOR	1	I/E Range &Mode
IRANGE	QUANT	1.50000E+001	&Max Current (mA)
AREA	QUANT	1.00000E+000	Electrode &Area (cm^2)
ELECTRODETYPE	SELECTOR	0	Electrode Type
STRIPPING	TOGGLE	F	Used for Stripping
POLARITY	TOGGLE	F	Signal Polarity
CONDIT	TWOPARAM	F	1.50000E+001	0.00000E+000	Conditionin&g	Time(s)	E(V)
DELAY	TWOPARAM	T	5.00000E+000	0.00000E+000	Init. De&lay	Time(s)	Stab.(mV/s)
EQDELAY	QUANT	3.00000E+000	Equil. &Time (s)
IRCOMP	SELECTOR	0	IRCom&p
PFCOR	QUANT	0.00000E+000	PF Corr. (ohm)
SAMPLINGMODE	SELECTOR	2	Sampling &Mode
OCVCURVE	TABLE	20
	Pt	T	Vf	Vm	Ach	Over
	#	s	V vs. Ref.	V	V	bits
	0	0.25	1.90574E-001	1.90574E-001	8.61001E-005	...........
	1	0.5	1.90575E-001	1.90614E-001	8.38502E-005	...........
	2	0.75	1.90580E-001	1.90676E-001	8.56002E-005	...........
	3	1	1.90592E-001	1.90541E-001	8.72251E-005	...........
	4	1.25	1.90605E-001	1.90602E-001	9.09751E-005	...........
	5	1.5	1.90605E-001	1.90491E-001	8.63501E-005	...........
	6	1.75	1.90590E-001	1.90566E-001	8.52668E-005	...........
	7	2	1.90567E-001	1.90443E-001	9.68917E-005	...........
	8	2.25	1.90541E-001	1.90454E-001	8.26835E-005	...........
	9	2.5	1.90515E-001	1.90556E-001	8.93084E-005	...........
	10	2.75	1.90493E-001	1.90348E-001	8.70585E-005	...........
	11	3	1.90477E-001	1.90426E-001	9.20584E-005	...........
	12	3.25	1.90456E-001	1.90353E-001	9.07251E-005	...........
	13	3.5	1.90429E-001	1.90413E-001	8.77668E-005	...........
	14	3.75	1.90405E-001	1.90327E-001	8.64335E-005	...........
	15	4	1.90386E-001	1.90274E-001	8.51002E-005	...........
	16	4.25	1.90365E-001	1.90375E-001	8.46835E-005	...........
	17	4.5	1.90344E-001	1.90253E-001	8.66835E-005	...........
	18	4.75	1.90325E-001	1.90286E-001	8.68085E-005	...........
	19	5	1.90309E-001	1.90228E-001	8.63501E-005	...........
EOC	QUANT	0.190309	Open Circuit (V)
PSTATMODEL	IQUANT	4	Pstat Model
PSTATSECTION	LABEL	REF600-16093	Pstat Section
PSTATSERIALNO	LABEL	16093	Pstat Serial Number
CTRLMODE	IQUANT	1	Control Mode
IESTAB	IQUANT	2	I/E Stability
CASPEED	IQUANT	2	Control Amp Speed
CONVENTION	IQUANT	1	Current Convention
ICHRANGE	IQUANT	2	Ich Range
ICHRANGEMODE	TOGGLE	F	Ich Auto Range
ICHOFFSETENABLE	TOGGLE	F	Ich Offset Enable
ICHOFFSET	QUANT	0	Ich Offset (V)
ICHFILTER	IQUANT	2	Ich Filter
VCHRANGE	IQUANT	2	Vch Range
VCHRANGEMODE	TOGGLE	F	Vch Auto Range
VCHOFFSETENABLE	TOGGLE	F	Vch Offset Enable
VCHOFFSET	QUANT	0	Vch Offset (V)
VCHFILTER	IQUANT	2	Vch Filter
ACHRANGE	IQUANT	2	Ach Range
ACHOFFSETENABLE	TOGGLE	F	Ach Offset Enable
ACHOFFSET	QUANT	0	Ach Offset (V)
ACHFILTER	IQUANT	1	Ach Filter
IERANGELOWERLIMIT	IQUANT	1	I/E Range Lower Limit
IERANGEMODE	TOGGLE	F	I/E AutoRange
IERANGE	IQUANT	10	I/E Range
POSFEEDENABLE	TOGGLE	F	Positive Feedback IR Comp
POSFEEDRESISTANCE	QUANT	0	Positive Feedback Resistance (ohm)
ACHSELECT	IQUANT	0	Ach Select
CABLEID	IQUANT	14	Cable ID
DCCALDATE	LABEL	11/5/2019	DC Calibration Date
ACCALDATE	LABEL		AC Calibration Date
THERMOSELECT	IQUANT	1	Thermo Select
FRAMEWORKVERSION	QUANT	6.12	Framework Version
INSTRUMENTVERSION	LABEL	3.11	Instrument Version
CURVE1	TABLE
	Pt	T	Vf	Im	Vu	Sig	Ach	IERange	Over
	#	s	V vs. Ref.	A	V	V	V	#	bits
	0	0.02	1.90134E-001	-1.80733E-006	0.00000E+000	1.90300E-001	1.83893E-004	10	...........
	4	0.1	1.94180E-001	-4.24622E-008	0.00000E+000	1.94300E-001	1.85395E-004	10	...........
	8	0.18	1.98156E-001	1.64384E-007	0.00000E+000	1.98300E-001	1.79390E-004	10	...........
	12	0.26	2.02223E-001	4.57973E-007	0.00000E+000	2.02300E-001	1.75553E-004	10	...........
	16	0.34	2.06118E-001	1.89406E-007	0.00000E+000	2.06300E-001	1.83893E-004	10	...........
	20	0.42	2.10140E-001	8.04942E-007	0.00000E+000	2.10300E-001	1.84811E-004	10	...........
	24	0.5	2.14102E-001	2.51127E-007	0.00000E+000	2.14300E-001	1.83560E-004	10	...........
	28	0.58	2.18107E-001	7.71580E-007	0.00000E+000	2.18300E-001	1.77888E-004	10	...........
	32	0.66	2.22104E-001	5.41379E-007	0.00000E+000	2.22300E-001	1.78556E-004	10	...........
	36	0.74	2.26168E-001	1.03181E-006	0.00000E+000	2.26300E-001	1.81892E-004	10	...........
	40	0.82	2.30132E-001	1.19695E-006	0.00000E+000	2.30300E-001	1.82642E-004	10	...........
	44	0.9	2.34138E-001	2.34628E-006	0.00000E+000	2.34300E-001	1.79890E-004	10	...........
	48	0.98	2.38093E-001	2.26455E-006	0.00000E+000	2.38300E-001	1.78139E-004	10	...........
	52	1.06	2.42101E-001	1.52223E-006	0.00000E+000	2.42300E-001	1.75470E-004	10	...........
	56	1.14	2.46089E-001	2.06771E-006	0.00000E+000	2.46300E-001	1.66379E-004	10	...........
	60	1.22	2.50136E-001	1.98931E-006	0.00000E+000	2.50300E-001	1.82642E-004	10	...........
	64	1.3	2.54103E-001	3.12029E-006	0.00000E+000	2.54300E-001	1.73802E-004	10	...........
	68	1.38	2.58132E-001	2.44804E-006	0.00000E+000	2.58300E-001	1.83059E-004	10	...........
	72	1.46	2.62074E-001	2.90177E-006	0.00000E+000	2.62300E-001	1.77305E-004	10	...........
	76	1.54	2.66139E-001	3.35883E-006	0.00000E+000	2.66300E-001	1.64044E-004	10	...........
	80	1.62	2.70044E-001	3.55067E-006	0.00000E+000	2.70300E-001	1.80390E-004	10	...........
	84	1.7	2.74132E-001	4.18789E-006	0.00000E+000	2.74300E-001	1.87063E-004	10	...........
	88	1.78	2.78096E-001	4.05944E-006	0.00000E+000	2.78300E-001	1.80807E-004	10	...........
	92	1.86	2.82097E-001	4.94521E-006	0.00000E+000	2.82300E-001	1.84227E-004	10	...........
	96	1.94	2.86079E-001	4.27129E-006	0.00000E+000	2.86300E-001	1.76554E-004	10	...........
	100	2.02	2.90087E-001	4.53319E-006	0.00000E+000	2.90300E-001	1.82559E-004	10	...........
	104	2.1	2.94015E-001	4.56155E-006	0.00000E+000	2.94300E-001	1.73635E-004	10	...........
	108	2.18	2.98107E-001	5.69754E-006	0.00000E+000	2.98300E-001	1.77471E-004	10	...........
	112	2.26	3.02050E-001	6.38313E-006	0.00000E+000	3.02300E-001	1.80641E-004	10	...........
	116	2.34	3.06107E-001	6.61166E-006	0.00000E+000	3.06300E-001	1.83476E-004	10	...........
	120	2.42	3.10038E-001	6.42817E-006	0.00000E+000	3.10300E-001	1.63543E-004	10	...........
	124	2.5	3.14061E-001	6.88023E-006	0.00000E+000	3.14300E-001	1.78472E-004	10	...........
	128	2.58	3.18005E-001	9.00041E-006	0.00000E+000	3.18300E-001	1.78889E-004	10	...........
	132	2.66	3.22090E-001	8.84694E-006	0.00000E+000	3.22300E-001	1.75970E-004	10	...........
	136	2.74	3.25979E-001	1.05501E-005	0.00000E+000	3.26300E-001	1.79056E-004	10	...........
	140	2.82	3.30115E-001	1.00580E-005	0.00000E+000	3.30300E-001	1.68214E-004	10	...........
	144	2.9	3.33958E-001	1.02749E-005	0.00000E+000	3.34300E-001	1.77305E-004	10	...........
	148	2.98	3.38043E-001	1.11890E-005	0.00000E+000	3.38300E-001	1.79556E-004	10	...........
	152	3.06	3.41990E-001	1.24851E-005	0.00000E+000	3.42300E-001	1.75970E-004	10	...........
	156	3.14	3.46047E-001	1.27036E-005	0.00000E+000	3.46300E-001	1.77054E-004	10	...........
	160	3.22	3.49967E-001	1.37479E-005	0.00000E+000	3.50300E-001	1.67880E-004	10	...........
	164	3.3	3.54055E-001	1.44251E-005	0.00000E+000	3.54300E-001	1.78722E-004	10	...........
	168	3.38	3.57991E-001	1.52959E-005	0.00000E+000	3.58300E-001	1.77888E-004	10	...........
	172	3.46	3.62043E-001	1.79565E-005	0.00000E+000	3.62300E-001	1.78556E-004	10	...........
	176	3.54	3.66000E-001	1.79565E-005	0.00000E+000	3.66300E-001	1.77638E-004	10	...........
	180	3.62	3.70018E-001	2.08124E-005	0.00000E+000	3.70300E-001	1.76637E-004	10	...........
	184	3.7	3.73936E-001	2.01401E-005	0.00000E+000	3.74300E-001	1.76387E-004	10	...........
	188	3.78	3.78055E-001	2.21302E-005	0.00000E+000	3.78300E-001	1.73802E-004	10	...........
	192	3.86	3.81982E-001	2.41619E-005	0.00000E+000	3.82300E-001	1.75803E-004	10	...........
	196	3.94	3.86022E-001	2.73881E-005	0.00000E+000	3.86300E-001	1.77305E-004	10	...........
	200	4.02	3.89962E-001	2.89861E-005	0.00000E+000	3.90300E-001	1.77305E-004	10	...........
	204	4.1	3.94027E-001	3.17135E-005	0.00000E+000	3.94300E-001	1.66629E-004	10	...........
	208	4.18	3.97899E-001	3.42707E-005	0.00000E+000	3.98300E-001	1.74469E-004	10	...........
	212	4.26	4.02019E-001	3.84694E-005	0.00000E+000	4.02300E-001	1.77054E-004	10	...........
	216	4.34	4.05927E-001	4.25029E-005	0.00000E+000	4.06300E-001	1.76554E-004	10	...........
	220	4.42	4.09992E-001	4.70852E-005	0.00000E+000	4.10300E-001	1.80474E-004	10	...........
	224	4.5	4.13923E-001	5.28386E-005	0.00000E+000	4.14300E-001	1.69215E-004	10	...........
	228	4.58	4.17980E-001	5.61465E-005	0.00000E+000	4.18300E-001	1.74719E-004	10	...........
	232	4.66	4.21907E-001	6.24152E-005	0.00000E+000	4.22300E-001	1.77471E-004	10	...........
	236	4.74	4.26002E-001	7.05724E-005	0.00000E+000	4.26300E-001	1.79890E-004	10	...........
	240	4.82	4.29835E-001	7.70847E-005	0.00000E+000	4.30300E-001	1.81224E-004	10	...........
	244	4.9	4.34017E-001	8.34936E-005	0.00000E+000	4.34300E-001	1.66879E-004	10	...........
	248	4.98	4.37839E-001	9.02845E-005	0.00000E+000	4.38300E-001	1.81391E-004	10	...........
	252	5.06	4.41977E-001	9.81547E-005	0.00000E+000	4.42300E-001	1.77305E-004	10	...........
	256	5.14	4.45900E-001	1.06941E-004	0.00000E+000	4.46300E-001	1.73969E-004	10	...........
	260	5.22	4.49988E-001	1.15618E-004	0.00000E+000	4.50300E-001	1.75136E-004	10	...........
	264	5.3	4.53811E-001	1.23195E-004	0.00000E+000	4.54300E-001	1.80307E-004	10	...........
	268	5.38	4.57997E-001	1.30334E-004	0.00000E+000	4.58300E-001	1.69131E-004	10	...........
	272	5.46	4.61819E-001	1.35115E-004	0.00000E+000	4.62300E-001	1.81808E-004	10	...........
	276	5.54	4.65975E-001	1.42387E-004	0.00000E+000	4.66300E-001	1.73051E-004	10	...........
	280	5.62	4.69896E-001	1.49032E-004	0.00000E+000	4.70300E-001	1.75303E-004	10	...........
	284	5.7	4.73971E-001	1.53084E-004	0.00000E+000	4.74300E-001	1.77054E-004	10	...........
	288	5.78	4.77825E-001	1.56442E-004	0.00000E+000	4.78300E-001	1.67380E-004	10	...........
	292	5.86	4.81980E-001	1.58534E-004	0.00000E+000	4.82300E-001	1.77054E-004	10	...........
	296	5.94	4.85830E-001	1.61315E-004	0.00000E+000	4.86300E-001	1.78806E-004	10	...........
	300	6.02	4.89972E-001	1.62913E-004	0.00000E+000	4.90300E-001	1.75220E-004	10	...........
	304	6.1	4.93857E-001	1.63173E-004	0.00000E+000	4.94300E-001	1.79473E-004	10	...........
	308	6.18	4.97966E-001	1.63013E-004	0.00000E+000	4.98300E-001	1.69215E-004	10	...........
	312	6.26	5.01790E-001	1.59578E-004	0.00000E+000	5.02300E-001	1.76137E-004	10	...........
	316	6.34	5.05974E-001	1.56891E-004	0.00000E+000	5.06300E-001	1.74886E-004	10	...........
	320	6.42	5.09802E-001	1.53775E-004	0.00000E+000	5.10300E-001	1.73051E-004	10	...........
	324	6.5	5.13967E-001	1.50781E-004	0.00000E+000	5.14300E-001	1.73718E-004	10	...........
	328	6.58	5.17828E-001	1.46730E-004	0.00000E+000	5.18300E-001	1.75470E-004	10	...........
	332	6.66	5.21953E-001	1.42083E-004	0.00000E+000	5.22300E-001	1.70382E-004	10	...........
	336	6.74	5.25779E-001	1.37711E-004	0.00000E+000	5.26300E-001	1.74302E-004	10	...........
	340	6.82	5.29967E-001	1.35404E-004	0.00000E+000	5.30300E-001	1.71216E-004	10	...........
	344	6.9	5.33792E-001	1.31282E-004	0.00000E+000	5.34300E-001	1.78973E-004	10	...........
	348	6.98	5.37965E-001	1.28299E-004	0.00000E+000	5.38300E-001	1.76804E-004	10	...........
	352	7.06	5.41807E-001	1.24097E-004	0.00000E+000	5.42300E-001	1.71633E-004	10	...........
	356	7.14	5.45949E-001	1.19160E-004	0.00000E+000	5.46300E-001	1.76137E-004	10	...........
	360	7.22	5.49823E-001	1.15939E-004	0.00000E+000	5.50300E-001	1.75637E-004	10	...........
	364	7.3	5.53966E-001	1.11294E-004	0.00000E+000	5.54300E-001	1.73135E-004	10	...........
	368	7.38	5.57782E-001	1.10377E-004	0.00000E+000	5.58300E-001	1.78305E-004	10	...........
	372	7.46	5.61965E-001	1.06454E-004	0.00000E+000	5.62300E-001	1.70049E-004	10	...........
	376	7.54	5.65783E-001	1.01488E-004	0.00000E+000	5.66300E-001	1.79306E-004	10	...........
	380	7.62	5.69945E-001	9.87102E-005	0.00000E+000	5.70300E-001	1.80891E-004	10	...........
	384	7.7	5.73808E-001	9.69136E-005	0.00000E+000	5.74300E-001	1.84561E-004	10	...........
	388	7.78	5.77964E-001	9.47100E-005	0.00000E+000	5.78300E-001	1.73969E-004	10	...........
	392	7.86	5.81790E-001	9.35607E-005	0.00000E+000	5.82300E-001	1.74719E-004	10	...........
	396	7.94	5.85963E-001	9.00043E-005	0.00000E+000	5.86300E-001	1.79306E-004	10	...........
	400	8.02	5.89770E-001	8.73536E-005	0.00000E+000	5.90300E-001	1.85978E-004	10	...........
	404	8.1	5.93940E-001	8.54520E-005	0.00000E+000	5.94300E-001	1.77805E-004	10	...........
	408	8.18	5.97793E-001	8.34369E-005	0.00000E+000	5.98300E-001	1.76471E-004	10	...........
	412	8.26	6.01896E-001	8.15903E-005	0.00000E+000	6.02300E-001	1.73218E-004	10	...........
	416	8.34	6.05770E-001	7.97887E-005	0.00000E+000	6.06300E-001	1.84060E-004	10	...........
	420	8.42	6.09962E-001	7.69029E-005	0.00000E+000	6.10300E-001	1.75386E-004	10	...........
	424	8.5	6.13775E-001	7.55967E-005	0.00000E+000	6.14300E-001	1.81391E-004	10	...........
	428	8.58	6.17925E-001	7.32447E-005	0.00000E+000	6.18300E-001	1.76137E-004	10	...........
	432	8.66	6.21755E-001	7.37768E-005	0.00000E+000	6.22300E-001	1.81725E-004	10	...........
	436	8.74	6.25846E-001	7.34916E-005	0.00000E+000	6.26300E-001	1.71300E-004	10	...........
	440	8.82	6.29766E-001	7.02938E-005	0.00000E+000	6.30300E-001	1.80724E-004	10	...........
	444	8.9	6.33944E-001	7.04656E-005	0.00000E+000	6.34300E-001	1.79807E-004	10	...........
	448	8.98	6.37762E-001	6.82120E-005	0.00000E+000	6.38300E-001	1.77638E-004	10	...........
	452	9.06	6.41926E-001	6.72378E-005	0.00000E+000	6.42300E-001	1.69298E-004	10	...........
	456	9.14	6.45761E-001	6.63920E-005	0.00000E+000	6.46300E-001	1.68214E-004	10	...........
	460	9.22	6.49821E-001	6.49708E-005	0.00000E+000	6.50300E-001	1.79890E-004	10	...........
	464	9.3	6.53718E-001	6.38231E-005	0.00000E+000	6.54300E-001	1.70632E-004	10	...........
	468	9.38	6.57853E-001	6.34712E-005	0.00000E+000	6.58300E-001	1.72634E-004	10	...........
	472	9.46	6.61751E-001	6.37014E-005	0.00000E+000	6.62300E-001	1.79723E-004	10	...........
	476	9.54	6.65928E-001	6.41818E-005	0.00000E+000	6.66300E-001	1.67964E-004	10	...........
	480	9.62	6.69747E-001	6.34145E-005	0.00000E+000	6.70300E-001	1.78806E-004	10	...........
	484	9.7	6.73826E-001	6.11108E-005	0.00000E+000	6.74300E-001	1.76387E-004	10	...........
	488	9.78	6.77715E-001	6.06987E-005	0.00000E+000	6.78300E-001	1.87063E-004	10	...........
	492	9.86	6.81912E-001	6.03484E-005	0.00000E+000	6.82300E-001	1.73468E-004	10	...........
	496	9.94	6.85738E-001	5.98030E-005	0.00000E+000	6.86300E-001	1.81058E-004	10	...........
	500	10.02	6.89900E-001	5.91941E-005	0.00000E+000	6.90300E-001	1.75470E-004	10	...........
	504	10.1	6.93732E-001	5.88021E-005	0.00000E+000	6.94300E-001	1.84727E-004	10	...........
	508	10.18	6.97803E-001	5.81882E-005	0.00000E+000	6.98300E-001	1.81391E-004	10	...........
	512	10.26	7.01715E-001	5.70372E-005	0.00000E+000	7.02300E-001	1.82475E-004	10	...........
	516	10.34	7.05911E-001	5.81932E-005	0.00000E+000	7.06300E-001	1.70382E-004	10	...........
	520	10.42	7.09747E-001	5.91608E-005	0.00000E+000	7.10300E-001	1.73135E-004	10	...........
	524	10.5	7.13881E-001	5.74376E-005	0.00000E+000	7.14300E-001	1.74219E-004	10	...........
	528	10.58	7.17698E-001	5.77328E-005	0.00000E+000	7.18300E-001	1.80390E-004	10	...........
	532	10.66	7.21747E-001	5.63683E-005	0.00000E+000	7.22300E-001	1.75720E-004	10	...........
	536	10.74	7.25690E-001	5.61565E-005	0.00000E+000	7.26300E-001	1.82392E-004	10	...........
	540	10.82	7.29728E-001	5.59146E-005	0.00000E+000	7.30300E-001	1.65712E-004	10	...........
	544	10.9	7.33718E-001	5.57544E-005	0.00000E+000	7.34300E-001	1.82392E-004	10	...........
	548	10.98	7.37895E-001	5.47469E-005	0.00000E+000	7.38300E-001	1.70966E-004	10	...........
	552	11.06	7.41713E-001	5.50405E-005	0.00000E+000	7.42300E-001	1.76220E-004	10	...........
	556	11.14	7.45758E-001	5.47135E-005	0.00000E+000	7.46300E-001	1.77138E-004	10	...........
	560	11.22	7.49682E-001	5.52407E-005	0.00000E+000	7.50300E-001	1.72384E-004	10	...........
	564	11.3	7.53645E-001	5.57811E-005	0.00000E+000	7.54300E-001	1.76471E-004	10	...........
	568	11.38	7.57683E-001	5.53424E-005	0.00000E+000	7.58300E-001	1.75386E-004	10	...........
	572	11.46	7.61817E-001	5.51089E-005	0.00000E+000	7.62300E-001	1.74886E-004	10	...........
	576	11.54	7.65694E-001	5.52974E-005	0.00000E+000	7.66300E-001	1.80224E-004	10	...........
	580	11.62	7.69828E-001	5.50255E-005	0.00000E+000	7.70300E-001	1.72301E-004	10	...........
	584	11.7	7.73674E-001	5.44567E-005	0.00000E+000	7.74300E-001	1.81892E-004	10	...........
	588	11.78	7.77672E-001	5.46518E-005	0.00000E+000	7.78300E-001	1.78472E-004	10	...........
	592	11.86	7.81627E-001	5.48920E-005	0.00000E+000	7.82300E-001	1.78722E-004	10	...........
	596	11.94	7.85688E-001	5.41164E-005	0.00000E+000	7.86300E-001	1.85228E-004	10	...........
	600	12.02	7.89687E-001	5.51489E-005	0.00000E+000	7.90300E-001	1.75887E-004	10	...........
	604	12.1	7.93826E-001	5.56110E-005	0.00000E+000	7.94300E-001	1.65128E-004	10	...........
	608	12.18	7.97647E-001	5.66385E-005	0.00000E+000	7.98300E-001	1.79306E-004	10	...........
	612	12.26	7.97669E-001	4.69318E-005	0.00000E+000	7.98300E-001	1.83310E-004	10	...........
	616	12.34	7.93792E-001	3.95770E-005	0.00000E+000	7.94300E-001	1.74052E-004	10	...........
	620	12.42	7.89711E-001	3.40255E-005	0.00000E+000	7.90300E-001	1.81058E-004	10	...........
	624	12.5	7.85767E-001	3.03373E-005	0.00000E+000	7.86300E-001	1.71550E-004	10	...........
	628	12.58	7.81646E-001	2.59985E-005	0.00000E+000	7.82300E-001	1.72050E-004	10	...........
	632	12.66	7.77683E-001	2.26823E-005	0.00000E+000	7.78300E-001	1.77805E-004	10	...........
	636	12.74	7.73685E-001	2.06405E-005	0.00000E+000	7.74300E-001	1.79473E-004	10	...........
	640	12.82	7.69809E-001	1.79699E-005	0.00000E+000	7.70300E-001	1.78556E-004	10	...........
	644	12.9	7.65723E-001	1.70674E-005	0.00000E+000	7.66300E-001	1.70132E-004	10	...........
	648	12.98	7.61807E-001	1.49322E-005	0.00000E+000	7.62300E-001	1.83476E-004	10	...........
	652	13.06	7.57675E-001	1.47788E-005	0.00000E+000	7.58300E-001	1.74219E-004	10	...........
	656	13.14	7.53644E-001	1.20714E-005	0.00000E+000	7.54300E-001	1.76304E-004	10	...........
	660	13.22	7.49657E-001	1.10389E-005	0.00000E+000	7.50300E-001	1.83310E-004	10	...........
	664	13.3	7.45757E-001	9.19224E-006	0.00000E+000	7.46300E-001	1.73885E-004	10	...........
	668	13.38	7.41735E-001	9.02877E-006	0.00000E+000	7.42300E-001	1.73635E-004	10	...........
	672	13.46	7.37899E-001	7.34564E-006	0.00000E+000	7.38300E-001	1.74219E-004	10	...........
	676	13.54	7.33730E-001	6.52993E-006	0.00000E+000	7.34300E-001	1.80641E-004	10	...........
	680	13.62	7.29673E-001	5.93274E-006	0.00000E+000	7.30300E-001	1.81475E-004	10	...........
	684	13.7	7.25694E-001	5.85767E-006	0.00000E+000	7.26300E-001	1.83226E-004	10	...........
	688	13.78	7.21781E-001	5.20711E-006	0.00000E+000	7.22300E-001	1.69381E-004	10	...........
	692	13.86	7.17703E-001	4.32968E-006	0.00000E+000	7.18300E-001	1.83143E-004	10	...........
	696	13.94	7.13876E-001	4.52652E-006	0.00000E+000	7.14300E-001	1.71800E-004	10	...........
	700	14.02	7.09738E-001	3.72248E-006	0.00000E+000	7.10300E-001	1.80474E-004	10	...........
	704	14.1	7.05908E-001	3.26208E-006	0.00000E+000	7.06300E-001	1.75553E-004	10	...........
	708	14.18	7.01738E-001	2.56314E-006	0.00000E+000	7.02300E-001	1.70049E-004	10	...........
	712	14.26	6.97792E-001	1.91758E-006	0.00000E+000	6.98300E-001	1.79723E-004	10	...........
	716	14.34	6.93745E-001	1.10020E-006	0.00000E+000	6.94300E-001	1.84144E-004	10	...........
	720	14.42	6.89892E-001	1.38044E-006	0.00000E+000	6.90300E-001	1.79556E-004	10	...........
	724	14.5	6.85739E-001	4.37956E-007	0.00000E+000	6.86300E-001	1.77722E-004	10	...........
	728	14.58	6.81917E-001	1.04682E-006	0.00000E+000	6.82300E-001	1.71216E-004	10	...........
	732	14.66	6.77727E-001	9.98444E-007	0.00000E+000	6.78300E-001	1.79890E-004	10	...........
	736	14.74	6.73821E-001	7.61571E-007	0.00000E+000	6.74300E-001	1.80307E-004	10	...........
	740	14.82	6.69761E-001	-1.99265E-007	0.00000E+000	6.70300E-001	1.77221E-004	10	...........
	744	14.9	6.65913E-001	-1.24362E-008	0.00000E+000	6.66300E-001	1.79973E-004	10	...........
	748	14.98	6.61768E-001	-8.29814E-007	0.00000E+000	6.62300E-001	1.80140E-004	10	...........
	752	15.06	6.57878E-001	-7.56417E-007	0.00000E+000	6.58300E-001	1.71800E-004	10	...........
	756	15.14	6.53722E-001	-1.72059E-006	0.00000E+000	6.54300E-001	1.78722E-004	10	...........
	760	15.22	6.49816E-001	-1.57546E-006	0.00000E+000	6.50300E-001	1.84811E-004	10	...........
	764	15.3	6.45763E-001	-1.81400E-006	0.00000E+000	6.46300E-001	1.81058E-004	10	...........
	768	15.38	6.41948E-001	-2.32278E-006	0.00000E+000	6.42300E-001	1.77805E-004	10	...........
	772	15.46	6.37786E-001	-1.36028E-006	0.00000E+000	6.38300E-001	1.83893E-004	10	...........
	776	15.54	6.33959E-001	-1.42033E-006	0.00000E+000	6.34300E-001	1.75220E-004	10	...........
	780	15.62	6.29783E-001	-1.49373E-006	0.00000E+000	6.30300E-001	1.87897E-004	10	...........
	784	15.7	6.25802E-001	-1.83235E-006	0.00000E+000	6.26300E-001	1.76137E-004	10	...........
	788	15.78	6.21759E-001	-2.31778E-006	0.00000E+000	6.22300E-001	1.84227E-004	10	...........
	792	15.86	6.17939E-001	-2.31778E-006	0.00000E+000	6.18300E-001	1.69882E-004	10	...........
	796	15.94	6.13790E-001	-3.76737E-006	0.00000E+000	6.14300E-001	1.86229E-004	10	...........
	800	16.02	6.09977E-001	-3.47712E-006	0.00000E+000	6.10300E-001	1.76637E-004	10	...........
	804	16.1	6.05787E-001	-3.87747E-006	0.00000E+000	6.06300E-001	1.83143E-004	10	...........
	808	16.18	6.01867E-001	-3.58555E-006	0.00000E+000	6.02300E-001	1.82809E-004	10	...........
	812	16.26	5.97794E-001	-4.41961E-006	0.00000E+000	5.98300E-001	1.79890E-004	10	...........
	816	16.34	5.93942E-001	-3.34867E-006	0.00000E+000	5.94300E-001	1.75053E-004	10	...........
	820	16.42	5.89788E-001	-3.07177E-006	0.00000E+000	5.90300E-001	1.89064E-004	10	...........
	824	16.5	5.85977E-001	-2.23937E-006	0.00000E+000	5.86300E-001	1.77388E-004	10	...........
	828	16.58	5.81794E-001	-2.95667E-006	0.00000E+000	5.82300E-001	1.85895E-004	10	...........
	832	16.66	5.77974E-001	-3.72900E-006	0.00000E+000	5.78300E-001	1.76471E-004	10	...........
	836	16.74	5.73835E-001	-3.54051E-006	0.00000E+000	5.74300E-001	1.80140E-004	10	...........
	840	16.82	5.69943E-001	-4.96008E-006	0.00000E+000	5.70300E-001	1.78806E-004	10	...........
	844	16.9	5.65800E-001	-4.78492E-006	0.00000E+000	5.66300E-001	1.85812E-004	10	...........
	848	16.98	5.61966E-001	-5.11354E-006	0.00000E+000	5.62300E-001	1.82726E-004	10	...........
	852	17.06	5.57793E-001	-4.86666E-006	0.00000E+000	5.58300E-001	1.84811E-004	10	...........
	856	17.14	5.53978E-001	-5.18527E-006	0.00000E+000	5.54300E-001	1.69882E-004	10	...........
	860	17.22	5.49815E-001	-4.25613E-006	0.00000E+000	5.50300E-001	1.84978E-004	10	...........
	864	17.3	5.45951E-001	-4.31452E-006	0.00000E+000	5.46300E-001	1.80224E-004	10	...........
	868	17.38	5.41800E-001	-3.88748E-006	0.00000E+000	5.42300E-001	1.79139E-004	10	...........
	872	17.46	5.37983E-001	-4.28282E-006	0.00000E+000	5.38300E-001	1.81475E-004	10	...........
	876	17.54	5.33814E-001	-4.67316E-006	0.00000E+000	5.34300E-001	1.73468E-004	10	...........
	880	17.62	5.29979E-001	-5.99932E-006	0.00000E+000	5.30300E-001	1.81641E-004	10	...........
	884	17.7	5.25793E-001	-6.11942E-006	0.00000E+000	5.26300E-001	1.78305E-004	10	...........
	888	17.78	5.21946E-001	-6.10441E-006	0.00000E+000	5.22300E-001	1.76721E-004	10	...........
	892	17.86	5.17825E-001	-6.37798E-006	0.00000E+000	5.18300E-001	1.85144E-004	10	...........
	896	17.94	5.13983E-001	-6.39132E-006	0.00000E+000	5.14300E-001	1.81725E-004	10	...........
	900	18.02	5.09828E-001	-6.42969E-006	0.00000E+000	5.10300E-001	1.85144E-004	10	...........
	904	18.1	5.05988E-001	-5.34374E-006	0.00000E+000	5.06300E-001	1.79139E-004	10	...........
	908	18.18	5.01813E-001	-4.22610E-006	0.00000E+000	5.02300E-001	1.83560E-004	10	...........
	912	18.26	4.97942E-001	-5.44717E-006	0.00000E+000	4.98300E-001	1.76637E-004	10	...........
	916	18.34	4.93865E-001	-5.99264E-006	0.00000E+000	4.94300E-001	1.76137E-004	10	...........
	920	18.42	4.89999E-001	-6.28957E-006	0.00000E+000	4.90300E-001	1.69465E-004	10	...........
	924	18.5	4.85843E-001	-7.17701E-006	0.00000E+000	4.86300E-001	1.79556E-004	10	...........
	928	18.58	4.81998E-001	-6.97350E-006	0.00000E+000	4.82300E-001	1.77388E-004	10	...........
	932	18.66	4.77809E-001	-7.73082E-006	0.00000E+000	4.78300E-001	1.81892E-004	10	...........
	936	18.74	4.73973E-001	-8.46980E-006	0.00000E+000	4.74300E-001	1.79473E-004	10	...........
	940	18.82	4.69926E-001	-7.28210E-006	0.00000E+000	4.70300E-001	1.66879E-004	10	...........
	944	18.9	4.65991E-001	-8.04943E-006	0.00000E+000	4.66300E-001	1.78806E-004	10	...........
	948	18.98	4.61831E-001	-6.60651E-006	0.00000E+000	4.62300E-001	1.77888E-004	10	...........
	952	19.06	4.57998E-001	-6.35629E-006	0.00000E+000	4.58300E-001	1.81224E-004	10	...........
	956	19.14	4.53824E-001	-7.37385E-006	0.00000E+000	4.54300E-001	1.78305E-004	10	...........
	960	19.22	4.50018E-001	-7.10528E-006	0.00000E+000	4.50300E-001	1.66546E-004	10	...........
	964	19.3	4.45906E-001	-8.66330E-006	0.00000E+000	4.46300E-001	1.83226E-004	10	...........
	968	19.38	4.41996E-001	-9.30219E-006	0.00000E+000	4.42300E-001	1.75386E-004	10	...........
	972	19.46	4.37859E-001	-8.69666E-006	0.00000E+000	4.38300E-001	1.80224E-004	10	...........
	976	19.54	4.34015E-001	-8.99526E-006	0.00000E+000	4.34300E-001	1.78889E-004	10	...........
	980	19.62	4.29852E-001	-9.36892E-006	0.00000E+000	4.30300E-001	1.74219E-004	10	...........
	984	19.7	4.26028E-001	-9.50237E-006	0.00000E+000	4.26300E-001	1.74052E-004	10	...........
	988	19.78	4.21918E-001	-8.96023E-006	0.00000E+000	4.22300E-001	1.72968E-004	10	...........
	992	19.86	4.17996E-001	-7.99772E-006	0.00000E+000	4.18300E-001	1.73635E-004	10	...........
	996	19.94	4.13882E-001	-8.39807E-006	0.00000E+000	4.14300E-001	1.73552E-004	10	...........
	1000	20.02	4.10007E-001	-9.91272E-006	0.00000E+000	4.10300E-001	1.76804E-004	10	...........
	1004	20.1	4.05982E-001	-1.02113E-005	0.00000E+000	4.06300E-001	1.67880E-004	10	...........
	1008	20.18	4.02025E-001	-1.08869E-005	0.00000E+000	4.02300E-001	1.72467E-004	10	...........
	1012	20.26	3.97904E-001	-1.20579E-005	0.00000E+000	3.98300E-001	1.74886E-004	10	...........
	1016	20.34	3.94013E-001	-1.16326E-005	0.00000E+000	3.94300E-001	1.73135E-004	10	...........
	1020	20.42	3.89956E-001	-1.16743E-005	0.00000E+000	3.90300E-001	1.80807E-004	10	...........
	1024	20.5	3.86063E-001	-1.18577E-005	0.00000E+000	3.86300E-001	1.64211E-004	10	...........
	1028	20.58	3.81969E-001	-1.24866E-005	0.00000E+000	3.82300E-001	1.74219E-004	10	...........
	1032	20.66	3.78054E-001	-1.14974E-005	0.00000E+000	3.78300E-001	1.79807E-004	10	...........
	1036	20.74	3.73915E-001	-1.06817E-005	0.00000E+000	3.74300E-001	1.77138E-004	10	...........
	1040	20.82	3.70023E-001	-1.10837E-005	0.00000E+000	3.70300E-001	1.75470E-004	10	...........
	1044	20.9	3.66012E-001	-1.15658E-005	0.00000E+000	3.66300E-001	1.69048E-004	10	...........
	1048	20.98	3.62048E-001	-1.32373E-005	0.00000E+000	3.62300E-001	1.77221E-004	10	...........
	1052	21.06	3.57976E-001	-1.39646E-005	0.00000E+000	3.58300E-001	1.82726E-004	10	...........
	1056	21.14	3.54058E-001	-1.47186E-005	0.00000E+000	3.54300E-001	1.75553E-004	10	...........
	1060	21.22	3.49909E-001	-1.45451E-005	0.00000E+000	3.50300E-001	1.75220E-004	10	...........
	1064	21.3	3.46049E-001	-1.47353E-005	0.00000E+000	3.46300E-001	1.74803E-004	10	...........
	1068	21.38	3.42026E-001	-1.52190E-005	0.00000E+000	3.42300E-001	1.58289E-004	10	...........
	1072	21.46	3.38047E-001	-1.47836E-005	0.00000E+000	3.38300E-001	1.77722E-004	10	...........
	1076	21.54	3.33941E-001	-1.45067E-005	0.00000E+000	3.34300E-001	1.80474E-004	10	...........
	1080	21.62	3.30083E-001	-1.43633E-005	0.00000E+000	3.30300E-001	1.80474E-004	10	...........
	1084	21.7	3.25977E-001	-1.44700E-005	0.00000E+000	3.26300E-001	1.78139E-004	10	...........
	1088	21.78	3.22116E-001	-1.58729E-005	0.00000E+000	3.22300E-001	1.66796E-004	10	...........
	1092	21.86	3.18018E-001	-1.79130E-005	0.00000E+000	3.18300E-001	1.76637E-004	10	...........
	1096	21.94	3.14063E-001	-1.75927E-005	0.00000E+000	3.14300E-001	1.82309E-004	10	...........
	1100	22.02	3.10003E-001	-1.92959E-005	0.00000E+000	3.10300E-001	1.75220E-004	10	...........
	1104	22.1	3.06108E-001	-1.91041E-005	0.00000E+000	3.06300E-001	1.77638E-004	10	...........
	1108	22.18	3.02078E-001	-1.93693E-005	0.00000E+000	3.02300E-001	1.69131E-004	10	...........
	1112	22.26	2.98107E-001	-2.01316E-005	0.00000E+000	2.98300E-001	1.78139E-004	10	...........
	1116	22.34	2.94025E-001	-2.08689E-005	0.00000E+000	2.94300E-001	1.82809E-004	10	...........
	1120	22.42	2.90081E-001	-1.97263E-005	0.00000E+000	2.90300E-001	1.77471E-004	10	...........
	1124	22.5	2.86055E-001	-2.02684E-005	0.00000E+000	2.86300E-001	1.84727E-004	10	...........
	1128	22.58	2.82109E-001	-2.14027E-005	0.00000E+000	2.82300E-001	1.79973E-004	10	...........
	1132	22.66	2.78078E-001	-2.34829E-005	0.00000E+000	2.78300E-001	1.77888E-004	10	...........
	1136	22.74	2.74135E-001	-2.42152E-005	0.00000E+000	2.74300E-001	1.86812E-004	10	...........
	1140	22.82	2.70037E-001	-2.47023E-005	0.00000E+000	2.70300E-001	1.79473E-004	10	...........
	1144	22.9	2.66111E-001	-2.56881E-005	0.00000E+000	2.66300E-001	1.82475E-004	10	...........
	1148	22.98	2.62073E-001	-2.65389E-005	0.00000E+000	2.62300E-001	1.85561E-004	10	...........
	1152	23.06	2.58153E-001	-2.77499E-005	0.00000E+000	2.58300E-001	1.69298E-004	10	...........
	1156	23.14	2.54097E-001	-2.88659E-005	0.00000E+000	2.54300E-001	1.81641E-004	10	...........
	1160	23.22	2.50142E-001	-2.72962E-005	0.00000E+000	2.50300E-001	1.81308E-004	10	...........
	1164	23.3	2.46031E-001	-2.98384E-005	0.00000E+000	2.46300E-001	1.82225E-004	10	...........
	1168	23.38	2.42105E-001	-2.96199E-005	0.00000E+000	2.42300E-001	1.81058E-004	10	...........
	1172	23.46	2.38132E-001	-3.14231E-005	0.00000E+000	2.38300E-001	1.69632E-004	10	...........
	1176	23.54	2.34139E-001	-3.22939E-005	0.00000E+000	2.34300E-001	1.81975E-004	10	...........
	1180	23.62	2.30135E-001	-3.45725E-005	0.00000E+000	2.30300E-001	1.79390E-004	10	...........
	1184	23.7	2.26173E-001	-3.37902E-005	0.00000E+000	2.26300E-001	1.86812E-004	10	...........
	1188	23.78	2.22082E-001	-3.63824E-005	0.00000E+000	2.22300E-001	1.85061E-004	10	...........
	1192	23.86	2.18127E-001	-3.69863E-005	0.00000E+000	2.18300E-001	1.76804E-004	10	...........
	1196	23.94	2.14102E-001	-3.89630E-005	0.00000E+000	2.14300E-001	1.85645E-004	10	...........
	1200	24.02	2.10148E-001	-3.99706E-005	0.00000E+000	2.10300E-001	1.81641E-004	10	...........
	1204	24.1	2.06107E-001	-4.01907E-005	0.00000E+000	2.06300E-001	1.83226E-004	10	...........
	1208	24.18	2.02202E-001	-4.14602E-005	0.00000E+000	2.02300E-001	1.87563E-004	10	...........
	1212	24.26	1.98148E-001	-4.27980E-005	0.00000E+000	1.98300E-001	1.78973E-004	10	...........
	1216	24.34	1.94189E-001	-4.47631E-005	0.00000E+000	1.94300E-001	1.84561E-004	10	...........
	1220	24.42	1.90126E-001	-4.62360E-005	0.00000E+000	1.90300E-001	1.85728E-004	10	...........
	1224	24.5	1.86180E-001	-4.72702E-005	0.00000E+000	1.86300E-001	1.88564E-004	10	...........
	1228	24.58	1.82153E-001	-4.90435E-005	0.00000E+000	1.82300E-001	1.82059E-004	10	...........
	1232	24.66	1.78216E-001	-5.12671E-005	0.00000E+000	1.78300E-001	1.81141E-004	10	...........
	1236	24.74	1.74225E-001	-5.28318E-005	0.00000E+000	1.74300E-001	1.69548E-004	10	...........
	1240	24.82	1.70219E-001	-5.54390E-005	0.00000E+000	1.70300E-001	1.83476E-004	10	...........
	1244	24.9	1.66147E-001	-5.60813E-005	0.00000E+000	1.66300E-001	1.90065E-004	10	...........
	1248	24.98	1.62195E-001	-5.88954E-005	0.00000E+000	1.62300E-001	1.81975E-004	10	...........
	1252	25.06	1.58169E-001	-6.04033E-005	0.00000E+000	1.58300E-001	1.83643E-004	10	...........
	1256	25.14	1.54231E-001	-6.26119E-005	0.00000E+000	1.54300E-001	1.69131E-004	10	...........
	1260	25.22	1.50183E-001	-6.57430E-005	0.00000E+000	1.50300E-001	1.76554E-004	10	...........
	1264	25.3	1.46223E-001	-6.87506E-005	0.00000E+000	1.46300E-001	1.81725E-004	10	...........
	1268	25.38	1.42190E-001	-7.04154E-005	0.00000E+000	1.42300E-001	1.73468E-004	10	...........
	1272	25.46	1.38209E-001	-7.44272E-005	0.00000E+000	1.38300E-001	1.77138E-004	10	...........
	1276	25.54	1.34205E-001	-7.70312E-005	0.00000E+000	1.34300E-001	1.72467E-004	10	...........
	1280	25.62	1.30228E-001	-8.02006E-005	0.00000E+000	1.30300E-001	1.76804E-004	10	...........
	1284	25.7	1.26217E-001	-8.32599E-005	0.00000E+000	1.26300E-001	1.78973E-004	10	...........
	1288	25.78	1.22246E-001	-8.40222E-005	0.00000E+000	1.22300E-001	1.78973E-004	10	...........
	1292	25.86	1.18221E-001	-8.84895E-005	0.00000E+000	1.18300E-001	1.79056E-004	10	...........
	1296	25.94	1.14217E-001	-9.02727E-005	0.00000E+000	1.14300E-001	1.78889E-004	10	...........
	1300	26.02	1.10246E-001	-9.43796E-005	0.00000E+000	1.10300E-001	1.71216E-004	10	...........
	1304	26.1	1.06247E-001	-9.77542E-005	0.00000E+000	1.06300E-001	1.82309E-004	10	...........
	1308	26.18	1.02249E-001	-1.00763E-004	0.00000E+000	1.02300E-001	1.73635E-004	10	...........
	1312	26.26	9.82706E-002	-1.04100E-004	0.00000E+000	9.83000E-002	1.76721E-004	10	...........
	1316	26.34	9.42352E-002	-1.07613E-004	0.00000E+000	9.43000E-002	1.80641E-004	10	...........
	1320	26.42	9.02414E-002	-1.10754E-004	0.00000E+000	9.03000E-002	1.69965E-004	10	...........
	1324	26.5	8.62374E-002	-1.14364E-004	0.00000E+000	8.63000E-002	1.74636E-004	10	...........
	1328	26.58	8.22658E-002	-1.17096E-004	0.00000E+000	8.23000E-002	1.79056E-004	10	...........
	1332	26.66	7.82413E-002	-1.17727E-004	0.00000E+000	7.83000E-002	1.81391E-004	10	...........
	1336	26.74	7.43143E-002	-1.22499E-004	0.00000E+000	7.43000E-002	1.78139E-004	10	...........
	1340	26.82	7.03256E-002	-1.23038E-004	0.00000E+000	7.03000E-002	1.73552E-004	10	...........
	1344	26.9	6.62917E-002	-1.28012E-004	0.00000E+000	6.63000E-002	1.76888E-004	10	...........
	1348	26.98	6.22393E-002	-1.30404E-004	0.00000E+000	6.23000E-002	1.78722E-004	10	...........
	1352	27.06	5.82840E-002	-1.31882E-004	0.00000E+000	5.83000E-002	1.75053E-004	10	...........
	1356	27.14	5.42690E-002	-1.34343E-004	0.00000E+000	5.43000E-002	1.81391E-004	10	...........
	1360	27.22	5.03161E-002	-1.36763E-004	0.00000E+000	5.03000E-002	1.81808E-004	10	...........
	1364	27.3	4.63385E-002	-1.39794E-004	0.00000E+000	4.63000E-002	1.71800E-004	10	...........
	1368	27.38	4.23075E-002	-1.40883E-004	0.00000E+000	4.23000E-002	1.81391E-004	10	...........
	1372	27.46	3.82629E-002	-1.40950E-004	0.00000E+000	3.83000E-002	1.73218E-004	10	...........
	1376	27.54	3.42978E-002	-1.41285E-004	0.00000E+000	3.43000E-002	1.84727E-004	10	...........
	1380	27.62	3.02726E-002	-1.42688E-004	0.00000E+000	3.03000E-002	1.77305E-004	10	...........
	1384	27.7	2.63440E-002	-1.42395E-004	0.00000E+000	2.63000E-002	1.77888E-004	10	...........
	1388	27.78	2.23277E-002	-1.42453E-004	0.00000E+000	2.23000E-002	1.86395E-004	10	...........
	1392	27.86	1.83611E-002	-1.41457E-004	0.00000E+000	1.83000E-002	1.81641E-004	10	...........
	1396	27.94	1.45233E-002	-1.41042E-004	0.00000E+000	1.43000E-002	1.82809E-004	10	...........
	1400	28.02	1.02973E-002	-1.39896E-004	0.00000E+000	1.03000E-002	1.86479E-004	10	...........
	1404	28.1	6.31139E-003	-1.38108E-004	0.00000E+000	6.30000E-003	1.80307E-004	10	...........
	1408	28.18	2.30945E-003	-1.37606E-004	0.00000E+000	2.30001E-003	1.83810E-004	10	...........
	1412	28.26	-1.62811E-003	-1.34862E-004	0.00000E+000	-1.69998E-003	1.74969E-004	10	...........
	1416	28.34	-5.62204E-003	-1.31742E-004	0.00000E+000	-5.69999E-003	1.75803E-004	10	...........
	1420	28.42	-9.59195E-003	-1.28217E-004	0.00000E+000	-9.69999E-003	1.70299E-004	10	...........
	1424	28.5	-1.36258E-002	-1.25325E-004	0.00000E+000	-1.37000E-002	1.74469E-004	10	...........
	1428	28.58	-1.76347E-002	-1.23572E-004	0.00000E+000	-1.77000E-002	1.77972E-004	10	...........
	1432	28.66	-2.16035E-002	-1.20758E-004	0.00000E+000	-2.17000E-002	1.82225E-004	10	...........
	1436	28.74	-2.55739E-002	-1.17361E-004	0.00000E+000	-2.57000E-002	1.82142E-004	10	...........
	1440	28.82	-2.95769E-002	-1.14199E-004	0.00000E+000	-2.97000E-002	1.82059E-004	10	...........
	1444	28.9	-3.36047E-002	-1.12163E-004	0.00000E+000	-3.37000E-002	1.77221E-004	10	...........
	1448	28.98	-3.76365E-002	-1.09409E-004	0.00000E+000	-3.77000E-002	1.74386E-004	10	...........
	1452	29.06	-4.16194E-002	-1.07007E-004	0.00000E+000	-4.17000E-002	1.80641E-004	10	...........
	1456	29.14	-4.56027E-002	-1.03733E-004	0.00000E+000	-4.57000E-002	1.81141E-004	10	...........
	1460	29.22	-4.95682E-002	-1.00675E-004	0.00000E+000	-4.97000E-002	1.77722E-004	10	...........
	1464	29.3	-5.35673E-002	-9.72354E-005	0.00000E+000	-5.37000E-002	1.80057E-004	10	...........
	1468	29.38	-5.75020E-002	-9.42979E-005	0.00000E+000	-5.77000E-002	1.68214E-004	10	...........
	1472	29.46	-6.16178E-002	-9.28783E-005	0.00000E+000	-6.17000E-002	1.79306E-004	10	...........
	1476	29.54	-6.56337E-002	-9.04395E-005	0.00000E+000	-6.57000E-002	1.79223E-004	10	...........
	1480	29.62	-6.96080E-002	-8.75053E-005	0.00000E+000	-6.97000E-002	1.83727E-004	10	...........
	1484	29.7	-7.35695E-002	-8.54001E-005	0.00000E+000	-7.37000E-002	1.75303E-004	10	...........
	1488	29.78	-7.75075E-002	-8.32182E-005	0.00000E+000	-7.77000E-002	1.71049E-004	10	...........
	1492	29.86	-8.14362E-002	-8.22007E-005	0.00000E+000	-8.17000E-002	1.81058E-004	10	...........
	1496	29.94	-8.55310E-002	-8.08728E-005	0.00000E+000	-8.57000E-002	1.86145E-004	10	...........
	1500	30.02	-8.96066E-002	-7.76267E-005	0.00000E+000	-8.97000E-002	1.71216E-004	10	...........
	1504	30.1	-9.35896E-002	-7.61504E-005	0.00000E+000	-9.37000E-002	1.74886E-004	10	...........
	1508	30.18	-9.75773E-002	-7.39835E-005	0.00000E+000	-9.77000E-002	1.72717E-004	10	...........
	1512	30.26	-1.01568E-001	-7.35431E-005	0.00000E+000	-1.01700E-001	1.79223E-004	10	...........
	1516	30.34	-1.05461E-001	-7.28275E-005	0.00000E+000	-1.05700E-001	1.77638E-004	10	...........
	1520	30.42	-1.09525E-001	-7.16281E-005	0.00000E+000	-1.09700E-001	1.79973E-004	10	...........
	1524	30.5	-1.13433E-001	-6.86405E-005	0.00000E+000	-1.13700E-001	1.70716E-004	10	...........
	1528	30.58	-1.17558E-001	-6.79900E-005	0.00000E+000	-1.17700E-001	1.83059E-004	10	...........
	1532	30.66	-1.21495E-001	-6.70008E-005	0.00000E+000	-1.21700E-001	1.66462E-004	10	...........
	1536	30.74	-1.25525E-001	-6.64886E-005	0.00000E+000	-1.25700E-001	1.78722E-004	10	...........
	1540	30.82	-1.29461E-001	-6.52059E-005	0.00000E+000	-1.29700E-001	1.73468E-004	10	...........
	1544	30.9	-1.33504E-001	-6.46821E-005	0.00000E+000	-1.33700E-001	1.81558E-004	10	...........
	1548	30.98	-1.37363E-001	-6.26820E-005	0.00000E+000	-1.37700E-001	1.76054E-004	10	...........
	1552	31.06	-1.41506E-001	-6.16644E-005	0.00000E+000	-1.41700E-001	1.75970E-004	10	...........
	1556	31.14	-1.45507E-001	-6.25435E-005	0.00000E+000	-1.45700E-001	1.84894E-004	10	...........
	1560	31.22	-1.49496E-001	-6.15977E-005	0.00000E+000	-1.49700E-001	1.84227E-004	10	...........
	1564	31.3	-1.53421E-001	-6.16478E-005	0.00000E+000	-1.53700E-001	1.80641E-004	10	...........
	1568	31.38	-1.57478E-001	-5.96043E-005	0.00000E+000	-1.57700E-001	1.83226E-004	10	...........
	1572	31.46	-1.61431E-001	-5.88487E-005	0.00000E+000	-1.61700E-001	1.70299E-004	10	...........
	1576	31.54	-1.65542E-001	-5.88553E-005	0.00000E+000	-1.65700E-001	1.85478E-004	10	...........
	1580	31.62	-1.69506E-001	-5.87602E-005	0.00000E+000	-1.69700E-001	1.85061E-004	10	...........
	1584	31.7	-1.73489E-001	-5.83132E-005	0.00000E+000	-1.73700E-001	1.83810E-004	10	...........
[...]
	12587	251.76	-2.22789E-001	-3.37084E-005	0.00000E+000	-2.23000E-001	1.83893E-004	10	...........
	12589	251.8	-2.20773E-001	-3.31696E-005	0.00000E+000	-2.21000E-001	1.83310E-004	10	...........
	12591	251.84	-2.18785E-001	-3.39787E-005	0.00000E+000	-2.19000E-001	1.77722E-004	10	...........
	12593	251.88	-2.16805E-001	-3.32647E-005	0.00000E+000	-2.17000E-001	1.75220E-004	10	...........
	12595	251.92	-2.14814E-001	-3.28510E-005	0.00000E+000	-2.15000E-001	1.76888E-004	10	...........
	12597	251.96	-2.12758E-001	-3.35850E-005	0.00000E+000	-2.13000E-001	1.76471E-004	10	...........
	12599	252	-2.10741E-001	-3.27326E-005	0.00000E+000	-2.11000E-001	1.79139E-004	10	...........
	12601	252.04	-2.08749E-001	-3.36684E-005	0.00000E+000	-2.09000E-001	1.82392E-004	10	...........
	12603	252.08	-2.06763E-001	-3.22772E-005	0.00000E+000	-2.07000E-001	1.78305E-004	10	...........
	12605	252.12	-2.04658E-001	-3.33565E-005	0.00000E+000	-2.05000E-001	1.74052E-004	10	...........
	12607	252.16	-2.02780E-001	-3.30178E-005	0.00000E+000	-2.03000E-001	1.73969E-004	10	...........
	12609	252.2	-2.00796E-001	-3.35867E-005	0.00000E+000	-2.01000E-001	1.78389E-004	10	...........
	12611	252.24	-1.98841E-001	-3.29962E-005	0.00000E+000	-1.99000E-001	1.77722E-004	10	...........
	12613	252.28	-1.96827E-001	-3.37485E-005	0.00000E+000	-1.97000E-001	1.82809E-004	10	...........
	12615	252.32	-1.94804E-001	-3.36984E-005	0.00000E+000	-1.95000E-001	1.77972E-004	10	...........
	12617	252.36	-1.92836E-001	-3.29444E-005	0.00000E+000	-1.93000E-001	1.76888E-004	10	...........
	12619	252.4	-1.90900E-001	-3.36350E-005	0.00000E+000	-1.91000E-001	1.75637E-004	10	...........
	12621	252.44	-1.88708E-001	-3.30445E-005	0.00000E+000	-1.89000E-001	1.75053E-004	10	...........
	12623	252.48	-1.86763E-001	-3.35817E-005	0.00000E+000	-1.87000E-001	1.74219E-004	10	...........
	12625	252.52	-1.84757E-001	-3.13464E-005	0.00000E+000	-1.85000E-001	1.64794E-004	10	...........
	12627	252.56	-1.82797E-001	-3.29294E-005	0.00000E+000	-1.83000E-001	1.64044E-004	10	...........
	12629	252.6	-1.80797E-001	-3.23706E-005	0.00000E+000	-1.81000E-001	1.75637E-004	10	...........
	12631	252.64	-1.78789E-001	-3.32264E-005	0.00000E+000	-1.79000E-001	1.77138E-004	10	...........
	12633	252.68	-1.76811E-001	-3.23306E-005	0.00000E+000	-1.77000E-001	1.82225E-004	10	...........
	12635	252.72	-1.74843E-001	-3.31012E-005	0.00000E+000	-1.75000E-001	1.79640E-004	10	...........
	12637	252.76	-1.72828E-001	-3.25257E-005	0.00000E+000	-1.73000E-001	1.79640E-004	10	...........
	12639	252.8	-1.70810E-001	-3.22021E-005	0.00000E+000	-1.71000E-001	1.78889E-004	10	...........
	12641	252.84	-1.68835E-001	-3.25624E-005	0.00000E+000	-1.69000E-001	1.82475E-004	10	...........
	12643	252.88	-1.66876E-001	-3.11629E-005	0.00000E+000	-1.67000E-001	1.79223E-004	10	...........
	12645	252.92	-1.64774E-001	-3.23489E-005	0.00000E+000	-1.65000E-001	1.74469E-004	10	...........
	12647	252.96	-1.62769E-001	-3.15866E-005	0.00000E+000	-1.63000E-001	1.76387E-004	10	...........
	12649	253	-1.60817E-001	-3.27259E-005	0.00000E+000	-1.61000E-001	1.77305E-004	10	...........
	12651	253.04	-1.58874E-001	-3.13614E-005	0.00000E+000	-1.59000E-001	1.80057E-004	10	...........
	12653	253.08	-1.56836E-001	-3.23673E-005	0.00000E+000	-1.57000E-001	1.75553E-004	10	...........
	12655	253.12	-1.54801E-001	-3.16233E-005	0.00000E+000	-1.55000E-001	1.77638E-004	10	...........
	12657	253.16	-1.52842E-001	-3.24991E-005	0.00000E+000	-1.53000E-001	1.78055E-004	10	...........
	12659	253.2	-1.50878E-001	-3.25424E-005	0.00000E+000	-1.51000E-001	1.76304E-004	10	...........
	12661	253.24	-1.48873E-001	-3.12380E-005	0.00000E+000	-1.49000E-001	1.74219E-004	10	...........
	12663	253.28	-1.46810E-001	-3.20070E-005	0.00000E+000	-1.47000E-001	1.80474E-004	10	...........
	12665	253.32	-1.44851E-001	-3.11412E-005	0.00000E+000	-1.45000E-001	1.75136E-004	10	...........
	12667	253.36	-1.42840E-001	-3.21204E-005	0.00000E+000	-1.43000E-001	1.68798E-004	10	...........
	12669	253.4	-1.40839E-001	-3.10795E-005	0.00000E+000	-1.41000E-001	1.68464E-004	10	...........
	12671	253.44	-1.38818E-001	-3.18151E-005	0.00000E+000	-1.39000E-001	1.79473E-004	10	...........
	12673	253.48	-1.36821E-001	-3.14298E-005	0.00000E+000	-1.37000E-001	1.77888E-004	10	...........
	12675	253.52	-1.34908E-001	-3.21120E-005	0.00000E+000	-1.35000E-001	1.82976E-004	10	...........
	12677	253.56	-1.32769E-001	-3.07242E-005	0.00000E+000	-1.33000E-001	1.82309E-004	10	...........
	12679	253.6	-1.30800E-001	-3.15532E-005	0.00000E+000	-1.31000E-001	1.81475E-004	10	...........
	12681	253.64	-1.28820E-001	-3.19419E-005	0.00000E+000	-1.29000E-001	1.75803E-004	10	...........
	12683	253.68	-1.26921E-001	-3.08443E-005	0.00000E+000	-1.27000E-001	1.82059E-004	10	...........
	12685	253.72	-1.24864E-001	-3.19753E-005	0.00000E+000	-1.25000E-001	1.74302E-004	10	...........
	12687	253.76	-1.22828E-001	-3.02704E-005	0.00000E+000	-1.23000E-001	1.75720E-004	10	...........
	12689	253.8	-1.20839E-001	-3.11979E-005	0.00000E+000	-1.21000E-001	1.67797E-004	10	...........
	12691	253.84	-1.18897E-001	-3.02388E-005	0.00000E+000	-1.19000E-001	1.78055E-004	10	...........
	12693	253.88	-1.16900E-001	-3.10344E-005	0.00000E+000	-1.17000E-001	1.77054E-004	10	...........
	12695	253.92	-1.14840E-001	-3.00019E-005	0.00000E+000	-1.15000E-001	1.77555E-004	10	...........
	12697	253.96	-1.12887E-001	-3.07959E-005	0.00000E+000	-1.13000E-001	1.74969E-004	10	...........
	12699	254	-1.10945E-001	-3.01570E-005	0.00000E+000	-1.11000E-001	1.80307E-004	10	...........
	12701	254.04	-1.08873E-001	-3.04139E-005	0.00000E+000	-1.09000E-001	1.77221E-004	10	...........
	12703	254.08	-1.06810E-001	-3.01704E-005	0.00000E+000	-1.07000E-001	1.80307E-004	10	...........
	12705	254.12	-1.04842E-001	-2.95131E-005	0.00000E+000	-1.05000E-001	1.81141E-004	10	...........
	12707	254.16	-1.02905E-001	-3.05941E-005	0.00000E+000	-1.03000E-001	1.82059E-004	10	...........
	12709	254.2	-1.00877E-001	-2.92596E-005	0.00000E+000	-1.01000E-001	1.71133E-004	10	...........
	12711	254.24	-9.88188E-002	-3.00169E-005	0.00000E+000	-9.90000E-002	1.72301E-004	10	...........
	12713	254.28	-9.68895E-002	-2.91044E-005	0.00000E+000	-9.70000E-002	1.81391E-004	10	...........
	12715	254.32	-9.49233E-002	-3.03005E-005	0.00000E+000	-9.50000E-002	1.74135E-004	10	...........
	12717	254.36	-9.29121E-002	-2.96549E-005	0.00000E+000	-9.30000E-002	1.70799E-004	10	...........
	12719	254.4	-9.08949E-002	-3.03322E-005	0.00000E+000	-9.10000E-002	1.75803E-004	10	...........
	12721	254.44	-8.89575E-002	-2.98050E-005	0.00000E+000	-8.90000E-002	1.76304E-004	10	...........
	12723	254.48	-8.69821E-002	-2.95615E-005	0.00000E+000	-8.70000E-002	1.80974E-004	10	...........
	12725	254.52	-8.49004E-002	-2.97433E-005	0.00000E+000	-8.50000E-002	1.69882E-004	10	...........
	12727	254.56	-8.28221E-002	-2.84939E-005	0.00000E+000	-8.30000E-002	1.81058E-004	10	...........
	12729	254.6	-8.08616E-002	-2.95732E-005	0.00000E+000	-8.10000E-002	1.80307E-004	10	...........
	12731	254.64	-7.88967E-002	-2.80735E-005	0.00000E+000	-7.90000E-002	1.77555E-004	10	...........
	12733	254.68	-7.68697E-002	-2.91044E-005	0.00000E+000	-7.70000E-002	1.69381E-004	10	...........
	12735	254.72	-7.48295E-002	-2.86257E-005	0.00000E+000	-7.50000E-002	1.74719E-004	10	...........
	12737	254.76	-7.28887E-002	-2.87908E-005	0.00000E+000	-7.30000E-002	1.79056E-004	10	...........
	12739	254.8	-7.09448E-002	-2.84605E-005	0.00000E+000	-7.10000E-002	1.75970E-004	10	...........
	12741	254.84	-6.89253E-002	-2.88509E-005	0.00000E+000	-6.90000E-002	1.81141E-004	10	...........
	12743	254.88	-6.68813E-002	-2.84222E-005	0.00000E+000	-6.70000E-002	1.76888E-004	10	...........
	12745	254.92	-6.49412E-002	-2.78784E-005	0.00000E+000	-6.50000E-002	1.79473E-004	10	...........
	12747	254.96	-6.29946E-002	-2.85723E-005	0.00000E+000	-6.30000E-002	1.78556E-004	10	...........
	12749	255	-6.09580E-002	-2.73763E-005	0.00000E+000	-6.10000E-002	1.73468E-004	10	...........
	12751	255.04	-5.88914E-002	-2.82353E-005	0.00000E+000	-5.90000E-002	1.70382E-004	10	...........
	12753	255.08	-5.68876E-002	-2.65756E-005	0.00000E+000	-5.70000E-002	1.67296E-004	10	...........
	12755	255.12	-5.49657E-002	-2.76048E-005	0.00000E+000	-5.50000E-002	1.82642E-004	10	...........
	12757	255.16	-5.29322E-002	-2.67757E-005	0.00000E+000	-5.30000E-002	1.80474E-004	10	...........
	12759	255.2	-5.08384E-002	-2.79551E-005	0.00000E+000	-5.10000E-002	1.82559E-004	10	...........
	12761	255.24	-4.89097E-002	-2.75631E-005	0.00000E+000	-4.90000E-002	1.81725E-004	10	...........
	12763	255.28	-4.69451E-002	-2.77082E-005	0.00000E+000	-4.70000E-002	1.79306E-004	10	...........
	12765	255.32	-4.49310E-002	-2.73429E-005	0.00000E+000	-4.50000E-002	1.76471E-004	10	...........
	12767	255.36	-4.28695E-002	-2.69859E-005	0.00000E+000	-4.30000E-002	1.77805E-004	10	...........
	12769	255.4	-4.09210E-002	-2.68525E-005	0.00000E+000	-4.10000E-002	1.82809E-004	10	...........
	12771	255.44	-3.89415E-002	-2.61752E-005	0.00000E+000	-3.90000E-002	1.78389E-004	10	...........
	12773	255.48	-3.68816E-002	-2.66640E-005	0.00000E+000	-3.70000E-002	1.64211E-004	10	...........
	12775	255.52	-3.48271E-002	-2.51660E-005	0.00000E+000	-3.50000E-002	1.65712E-004	10	...........
	12777	255.56	-3.29120E-002	-2.65455E-005	0.00000E+000	-3.30000E-002	1.76637E-004	10	...........
	12779	255.6	-3.09708E-002	-2.58816E-005	0.00000E+000	-3.10000E-002	1.81558E-004	10	...........
	12781	255.64	-2.89358E-002	-2.58349E-005	0.00000E+000	-2.90000E-002	1.80307E-004	10	...........
	12783	255.68	-2.68457E-002	-2.51260E-005	0.00000E+000	-2.70000E-002	1.77138E-004	10	...........
	12785	255.72	-2.49325E-002	-2.61385E-005	0.00000E+000	-2.50000E-002	1.84477E-004	10	...........
	12787	255.76	-2.29723E-002	-2.49808E-005	0.00000E+000	-2.30000E-002	1.82059E-004	10	...........
	12789	255.8	-2.09769E-002	-2.46389E-005	0.00000E+000	-2.10000E-002	1.82559E-004	10	...........
	12791	255.84	-1.88710E-002	-2.49842E-005	0.00000E+000	-1.90000E-002	1.81558E-004	10	...........
	12793	255.88	-1.69304E-002	-2.38298E-005	0.00000E+000	-1.70000E-002	1.80807E-004	10	...........
	12795	255.92	-1.49302E-002	-2.50609E-005	0.00000E+000	-1.50000E-002	1.71717E-004	10	...........
	12797	255.96	-1.29776E-002	-2.39233E-005	0.00000E+000	-1.30000E-002	1.84060E-004	10	...........
	12799	256	-1.08799E-002	-2.50743E-005	0.00000E+000	-1.10000E-002	1.78889E-004	10	...........
	12801	256.04	-8.93792E-003	-2.39082E-005	0.00000E+000	-8.99999E-003	1.84394E-004	10	...........
	12803	256.08	-7.00125E-003	-2.45204E-005	0.00000E+000	-6.99998E-003	1.85728E-004	10	...........
	12805	256.12	-4.94924E-003	-2.35813E-005	0.00000E+000	-5.00000E-003	1.77138E-004	10	...........
	12807	256.16	-2.84277E-003	-2.43369E-005	0.00000E+000	-2.99999E-003	1.84227E-004	10	...........
	12809	256.2	-9.22028E-004	-2.36947E-005	0.00000E+000	-9.99987E-004	1.86479E-004	10	...........
	12811	256.24	9.61513E-004	-2.31609E-005	0.00000E+000	1.00002E-003	1.86979E-004	10	...........
	12813	256.28	2.95398E-003	-2.34011E-005	0.00000E+000	3.00001E-003	1.83727E-004	10	...........
	12815	256.32	5.09665E-003	-2.21033E-005	0.00000E+000	5.00001E-003	1.73135E-004	10	...........
	12817	256.36	7.00637E-003	-2.27472E-005	0.00000E+000	7.00001E-003	1.80641E-004	10	...........
	12819	256.4	8.96331E-003	-2.18748E-005	0.00000E+000	9.00000E-003	1.84561E-004	10	...........
	12821	256.44	1.09313E-002	-2.31292E-005	0.00000E+000	1.10000E-002	1.83310E-004	10	...........
	12823	256.48	1.30029E-002	-2.18715E-005	0.00000E+000	1.30000E-002	1.81141E-004	10	...........
	12825	256.52	1.50239E-002	-2.24169E-005	0.00000E+000	1.50000E-002	1.84060E-004	10	...........
	12827	256.56	1.69745E-002	-2.11442E-005	0.00000E+000	1.70000E-002	1.89481E-004	10	...........
	12829	256.6	1.89894E-002	-2.23502E-005	0.00000E+000	1.90000E-002	1.83810E-004	10	...........
	12831	256.64	2.11652E-002	-2.17747E-005	0.00000E+000	2.10000E-002	1.78973E-004	10	...........
	12833	256.68	2.30313E-002	-2.12910E-005	0.00000E+000	2.30000E-002	1.86979E-004	10	...........
	12835	256.72	2.49792E-002	-2.10474E-005	0.00000E+000	2.50000E-002	1.83643E-004	10	...........
	12837	256.76	2.69919E-002	-1.97880E-005	0.00000E+000	2.70000E-002	1.80724E-004	10	...........
	12839	256.8	2.91316E-002	-2.10307E-005	0.00000E+000	2.90000E-002	1.83310E-004	10	...........
	12841	256.84	3.09946E-002	-2.01550E-005	0.00000E+000	3.10000E-002	1.84644E-004	10	...........
	12843	256.88	3.29590E-002	-2.05603E-005	0.00000E+000	3.30000E-002	1.90315E-004	10	...........
	12845	256.92	3.49641E-002	-1.99198E-005	0.00000E+000	3.50000E-002	1.92484E-004	10	...........
	12847	256.96	3.70116E-002	-2.04869E-005	0.00000E+000	3.70000E-002	1.81308E-004	10	...........
	12849	257	3.89705E-002	-1.93042E-005	0.00000E+000	3.90000E-002	1.82809E-004	10	...........
	12851	257.04	4.09699E-002	-1.96562E-005	0.00000E+000	4.10000E-002	1.92567E-004	10	...........
	12853	257.08	4.29619E-002	-1.95561E-005	0.00000E+000	4.30000E-002	1.86479E-004	10	...........
	12855	257.12	4.51532E-002	-1.96078E-005	0.00000E+000	4.50000E-002	1.78472E-004	10	...........
	12857	257.16	4.70293E-002	-1.90607E-005	0.00000E+000	4.70000E-002	1.81141E-004	10	...........
	12859	257.2	4.89770E-002	-1.75010E-005	0.00000E+000	4.90000E-002	1.76387E-004	10	...........
	12861	257.24	5.09699E-002	-1.80581E-005	0.00000E+000	5.10000E-002	1.80974E-004	10	...........
	12863	257.28	5.31410E-002	-1.74159E-005	0.00000E+000	5.30000E-002	1.79723E-004	10	...........
	12865	257.32	5.49883E-002	-1.81482E-005	0.00000E+000	5.50000E-002	1.81808E-004	10	...........
	12867	257.36	5.69618E-002	-1.63950E-005	0.00000E+000	5.70000E-002	1.87146E-004	10	...........
	12869	257.4	5.89627E-002	-1.75360E-005	0.00000E+000	5.90000E-002	1.81308E-004	10	...........
	12871	257.44	6.10314E-002	-1.75794E-005	0.00000E+000	6.10000E-002	1.84978E-004	10	...........
	12873	257.48	6.29623E-002	-1.70923E-005	0.00000E+000	6.30000E-002	1.85561E-004	10	...........
	12875	257.52	6.49213E-002	-1.67520E-005	0.00000E+000	6.50000E-002	1.87480E-004	10	...........
	12877	257.56	6.69442E-002	-1.65318E-005	0.00000E+000	6.70000E-002	1.80641E-004	10	...........
	12879	257.6	6.91355E-002	-1.63834E-005	0.00000E+000	6.90000E-002	1.75553E-004	10	...........
	12881	257.64	7.09916E-002	-1.56327E-005	0.00000E+000	7.10000E-002	1.84394E-004	10	...........
	12883	257.68	7.29677E-002	-1.60581E-005	0.00000E+000	7.30000E-002	1.87396E-004	10	...........
	12885	257.72	7.49703E-002	-1.50672E-005	0.00000E+000	7.50000E-002	1.80307E-004	10	...........
	12887	257.76	7.71343E-002	-1.56611E-005	0.00000E+000	7.70000E-002	1.79890E-004	10	...........
	12889	257.8	7.89722E-002	-1.46001E-005	0.00000E+000	7.90000E-002	1.80474E-004	10	...........
	12891	257.84	8.09564E-002	-1.49721E-005	0.00000E+000	8.10000E-002	1.81058E-004	10	...........
	12893	257.88	8.29398E-002	-1.39162E-005	0.00000E+000	8.30000E-002	1.83143E-004	10	...........
	12895	257.92	8.50150E-002	-1.41781E-005	0.00000E+000	8.50000E-002	1.77221E-004	10	...........
	12897	257.96	8.69549E-002	-1.38512E-005	0.00000E+000	8.70000E-002	1.82559E-004	10	...........
	12899	258	8.89463E-002	-1.32940E-005	0.00000E+000	8.90000E-002	1.72384E-004	10	...........
	12901	258.04	9.09332E-002	-1.36143E-005	0.00000E+000	9.10000E-002	1.79139E-004	10	...........
	12903	258.08	9.31263E-002	-1.26501E-005	0.00000E+000	9.30000E-002	1.77638E-004	10	...........
	12905	258.12	9.49669E-002	-1.32423E-005	0.00000E+000	9.50000E-002	1.86812E-004	10	...........
	12907	258.16	9.69429E-002	-1.22764E-005	0.00000E+000	9.70000E-002	1.87980E-004	10	...........
	12909	258.2	9.89245E-002	-1.22047E-005	0.00000E+000	9.90000E-002	1.80307E-004	10	...........
	12911	258.24	1.01081E-001	-1.15158E-005	0.00000E+000	1.01000E-001	1.78639E-004	10	...........
	12913	258.28	1.02937E-001	-1.19045E-005	0.00000E+000	1.03000E-001	1.83810E-004	10	...........
	12915	258.32	1.04937E-001	-1.11021E-005	0.00000E+000	1.05000E-001	1.82809E-004	10	...........
	12917	258.36	1.06909E-001	-1.12772E-005	0.00000E+000	1.07000E-001	1.89481E-004	10	...........
	12919	258.4	1.08986E-001	-1.11988E-005	0.00000E+000	1.09000E-001	1.81558E-004	10	...........
	12921	258.44	1.10946E-001	-1.00962E-005	0.00000E+000	1.11000E-001	1.81892E-004	10	...........
	12923	258.48	1.12916E-001	-1.09653E-005	0.00000E+000	1.13000E-001	1.86562E-004	10	...........
	12925	258.52	1.14866E-001	-9.43064E-006	0.00000E+000	1.15000E-001	1.82559E-004	10	...........
	12927	258.56	1.17163E-001	-1.00545E-005	0.00000E+000	1.17000E-001	1.82059E-004	10	...........
	12929	258.6	1.18953E-001	-8.81677E-006	0.00000E+000	1.19000E-001	1.84477E-004	10	...........
	12931	258.64	1.20942E-001	-9.14539E-006	0.00000E+000	1.21000E-001	1.84561E-004	10	...........
	12933	258.68	1.22923E-001	-8.58990E-006	0.00000E+000	1.23000E-001	1.81224E-004	10	...........
	12935	258.72	1.25088E-001	-9.13204E-006	0.00000E+000	1.25000E-001	1.84727E-004	10	...........
	12937	258.76	1.26954E-001	-8.45812E-006	0.00000E+000	1.27000E-001	1.85061E-004	10	...........
	12939	258.8	1.28906E-001	-8.13117E-006	0.00000E+000	1.29000E-001	1.79306E-004	10	...........
	12941	258.84	1.30912E-001	-7.87928E-006	0.00000E+000	1.31000E-001	1.79807E-004	10	...........
	12943	258.88	1.33003E-001	-6.80668E-006	0.00000E+000	1.33000E-001	1.75720E-004	10	...........
	12945	258.92	1.34911E-001	-7.72248E-006	0.00000E+000	1.35000E-001	1.84060E-004	10	...........
	12947	258.96	1.36890E-001	-6.46806E-006	0.00000E+000	1.37000E-001	1.79890E-004	10	...........
	12949	259	1.38856E-001	-6.95348E-006	0.00000E+000	1.39000E-001	1.79973E-004	10	...........
	12951	259.04	1.40887E-001	-5.81916E-006	0.00000E+000	1.41000E-001	1.83727E-004	10	...........
	12953	259.08	1.42916E-001	-6.23619E-006	0.00000E+000	1.43000E-001	1.79556E-004	10	...........
	12955	259.12	1.44925E-001	-5.26201E-006	0.00000E+000	1.45000E-001	1.82809E-004	10	...........
	12957	259.16	1.46860E-001	-6.27622E-006	0.00000E+000	1.47000E-001	1.85728E-004	10	...........
	12959	259.2	1.49082E-001	-5.51556E-006	0.00000E+000	1.49000E-001	1.76971E-004	10	...........
	12961	259.24	1.50919E-001	-4.91003E-006	0.00000E+000	1.51000E-001	1.82726E-004	10	...........
	12963	259.28	1.52932E-001	-4.52303E-006	0.00000E+000	1.53000E-001	1.77221E-004	10	...........
	12965	259.32	1.54843E-001	-4.07431E-006	0.00000E+000	1.55000E-001	1.86395E-004	10	...........
	12967	259.36	1.56963E-001	-4.72487E-006	0.00000E+000	1.57000E-001	1.80807E-004	10	...........
	12969	259.4	1.58896E-001	-3.02005E-006	0.00000E+000	1.59000E-001	1.85978E-004	10	...........
	12971	259.44	1.60876E-001	-3.87580E-006	0.00000E+000	1.61000E-001	1.87063E-004	10	...........
	12973	259.48	1.62838E-001	-2.47291E-006	0.00000E+000	1.63000E-001	1.80891E-004	10	...........
	12975	259.52	1.64867E-001	-3.73735E-006	0.00000E+000	1.65000E-001	1.79890E-004	10	...........
	12977	259.56	1.66894E-001	-2.80654E-006	0.00000E+000	1.67000E-001	1.81975E-004	10	...........
	12979	259.6	1.68906E-001	-2.82989E-006	0.00000E+000	1.69000E-001	1.84394E-004	10	...........
	12981	259.64	1.70794E-001	-2.64640E-006	0.00000E+000	1.71000E-001	1.79223E-004	10	...........
	12983	259.68	1.73085E-001	-1.81400E-006	0.00000E+000	1.73000E-001	1.65795E-004	10	...........
	12985	259.72	1.74944E-001	-1.84737E-006	0.00000E+000	1.75000E-001	1.72884E-004	10	...........
	12987	259.76	1.76913E-001	-1.63718E-006	0.00000E+000	1.77000E-001	1.82559E-004	10	...........
	12989	259.8	1.78867E-001	-2.17765E-006	0.00000E+000	1.79000E-001	1.75970E-004	10	...........
	12991	259.84	1.80985E-001	-3.57737E-007	0.00000E+000	1.81000E-001	1.79723E-004	10	...........
	12993	259.88	1.82884E-001	-1.40365E-006	0.00000E+000	1.83000E-001	1.80724E-004	10	...........
	12995	259.92	1.84858E-001	-1.32541E-007	0.00000E+000	1.85000E-001	1.82475E-004	10	...........
	12997	259.96	1.86837E-001	-1.09505E-006	0.00000E+000	1.87000E-001	1.79973E-004	10	...........
	12999	260	1.88857E-001	4.76162E-008	0.00000E+000	1.89000E-001	1.80807E-004	10	...........
	13000	260.02	1.89821E-001	-7.68094E-007	0.00000E+000	1.90000E-001	1.76637E-004	10	...........