File: 20191210/CVTESTKRISTALL4BOX6_1.DTA
EXPLAIN
TAG	CV
TITLE	LABEL	CV	Test &Identifier
DATE	LABEL	12/10/2019	Date
TIME	LABEL	10:55:07	Time
NOTES	NOTES	1	&Notes...

PSTAT	PSTAT	REF600-16093	Potentiostat
VINIT	POTEN	0.00000E+000	T	Initial &E (V)
VLIMIT1	POTEN	8.00000E-001	F	Scan Limit &1 (V)
VLIMIT2	POTEN	-5.00000E-001	F	Scan Limit &2 (V)
VFINAL	POTEN	0.00000E+000	T	Final &E (V)
SCANRATE	QUANT	4.99999E+001	&Scan Rate (mV/s)
STEPSIZE	QUANT	1.00000E+000	St&ep Size (mV)
CYCLES	IQUANT	5	C&ycles (#)
IMODE	SELECTOR	1	I/E Range &Mode
IRANGE	QUANT	1.50000E+001	&Max Current (mA)
AREA	QUANT	1.00000E+000	Electrode &Area (cm^2)
ELECTRODETYPE	SELECTOR	0	Electrode Type
STRIPPING	TOGGLE	F	Used for Stripping
POLARITY	TOGGLE	F	Signal Polarity
CONDIT	TWOPARAM	F	1.50000E+001	0.00000E+000	Conditionin&g	Time(s)	E(V)
DELAY	TWOPARAM	T	5.00000E+000	0.00000E+000	Init. De&lay	Time(s)	Stab.(mV/s)
EQDELAY	QUANT	3.00000E+000	Equil. &Time (s)
IRCOMP	SELECTOR	0	IRCom&p
PFCOR	QUANT	0.00000E+000	PF Corr. (ohm)
SAMPLINGMODE	SELECTOR	2	Sampling &Mode
OCVCURVE	TABLE	20
	Pt	T	Vf	Vm	Ach	Over
	#	s	V vs. Ref.	V	V	bits
	0	0.25	-5.83633E-006	-5.83633E-006	8.70585E-005	...........
	1	0.5	-5.87659E-006	-7.94380E-006	8.21002E-005	...........
	2	0.75	-6.06890E-006	-7.06672E-006	7.93919E-005	...........
	3	1	-6.40378E-006	-4.83217E-006	8.09752E-005	...........
	4	1.25	-6.59939E-006	-6.14299E-006	7.74336E-005	...........
	5	1.5	-6.44355E-006	-5.05926E-006	8.07669E-005	...........
	6	1.75	-6.08103E-006	-5.89967E-006	7.95586E-005	...........
	7	2	-5.76732E-006	-5.47634E-006	8.14752E-005	...........
	8	2.25	-5.59313E-006	-4.88634E-006	8.46002E-005	...........
	9	2.5	-5.46855E-006	-4.31760E-006	8.31419E-005	...........
	10	2.75	-5.29310E-006	-6.11507E-006	7.88503E-005	...........
	11	3	-5.11971E-006	-3.99052E-006	8.18502E-005	...........
	12	3.25	-4.99988E-006	-4.07219E-006	7.95586E-005	...........
	13	3.5	-4.80744E-006	-2.83220E-006	8.25585E-005	...........
	14	3.75	-4.45818E-006	-5.04342E-006	8.36419E-005	...........
	15	4	-4.10134E-006	-2.88845E-006	8.44752E-005	...........
	16	4.25	-3.92150E-006	-5.67883E-006	8.45585E-005	...........
	17	4.5	-3.99820E-006	-5.89758E-006	9.01418E-005	...........
	18	4.75	-4.34676E-006	-4.90509E-006	8.17252E-005	...........
	19	5	-4.79456E-006	-4.12052E-006	8.61001E-005	...........
EOC	QUANT	-4.794556E-006	Open Circuit (V)
PSTATMODEL	IQUANT	4	Pstat Model
PSTATSECTION	LABEL	REF600-16093	Pstat Section
PSTATSERIALNO	LABEL	16093	Pstat Serial Number
CTRLMODE	IQUANT	1	Control Mode
IESTAB	IQUANT	2	I/E Stability
CASPEED	IQUANT	2	Control Amp Speed
CONVENTION	IQUANT	1	Current Convention
ICHRANGE	IQUANT	2	Ich Range
ICHRANGEMODE	TOGGLE	F	Ich Auto Range
ICHOFFSETENABLE	TOGGLE	F	Ich Offset Enable
ICHOFFSET	QUANT	0	Ich Offset (V)
ICHFILTER	IQUANT	2	Ich Filter
VCHRANGE	IQUANT	2	Vch Range
VCHRANGEMODE	TOGGLE	F	Vch Auto Range
VCHOFFSETENABLE	TOGGLE	F	Vch Offset Enable
VCHOFFSET	QUANT	0	Vch Offset (V)
VCHFILTER	IQUANT	2	Vch Filter
ACHRANGE	IQUANT	2	Ach Range
ACHOFFSETENABLE	TOGGLE	F	Ach Offset Enable
ACHOFFSET	QUANT	0	Ach Offset (V)
ACHFILTER	IQUANT	1	Ach Filter
IERANGELOWERLIMIT	IQUANT	1	I/E Range Lower Limit
IERANGEMODE	TOGGLE	F	I/E AutoRange
IERANGE	IQUANT	10	I/E Range
POSFEEDENABLE	TOGGLE	F	Positive Feedback IR Comp
POSFEEDRESISTANCE	QUANT	0	Positive Feedback Resistance (ohm)
ACHSELECT	IQUANT	0	Ach Select
CABLEID	IQUANT	14	Cable ID
DCCALDATE	LABEL	11/5/2019	DC Calibration Date
ACCALDATE	LABEL		AC Calibration Date
THERMOSELECT	IQUANT	1	Thermo Select
FRAMEWORKVERSION	QUANT	6.12	Framework Version
INSTRUMENTVERSION	LABEL	3.11	Instrument Version
CURVE1	TABLE
	Pt	T	Vf	Im	Vu	Sig	Ach	IERange	Over
	#	s	V vs. Ref.	A	V	V	V	#	bits
	0	0.02	-1.62907E-004	-4.38458E-006	0.00000E+000	1.49012E-008	3.18523E-005	10	...........
	4	0.1	3.78149E-003	-3.05509E-006	0.00000E+000	4.00001E-003	4.92832E-005	10	...........
	8	0.18	7.75549E-003	-1.57380E-006	0.00000E+000	8.00002E-003	4.04426E-005	10	...........
	12	0.26	1.17528E-002	-1.45886E-007	0.00000E+000	1.20000E-002	4.21107E-005	10	...........
	16	0.34	1.57700E-002	1.47886E-006	0.00000E+000	1.60000E-002	4.41123E-005	10	...........
	20	0.42	1.97852E-002	2.33461E-006	0.00000E+000	2.00000E-002	4.84492E-005	10	...........
	24	0.5	2.37784E-002	3.63407E-006	0.00000E+000	2.40000E-002	4.51965E-005	10	...........
	28	0.58	2.77662E-002	4.93687E-006	0.00000E+000	2.80000E-002	4.26945E-005	10	...........
	32	0.66	3.17606E-002	6.54661E-006	0.00000E+000	3.20000E-002	4.73650E-005	10	...........
	36	0.74	3.57862E-002	8.29980E-006	0.00000E+000	3.60000E-002	4.03592E-005	10	...........
	40	0.82	3.97728E-002	9.25897E-006	0.00000E+000	4.00000E-002	3.89414E-005	10	...........
	44	0.9	4.38035E-002	1.02799E-005	0.00000E+000	4.40000E-002	3.83576E-005	10	...........
	48	0.98	4.77837E-002	1.16077E-005	0.00000E+000	4.80000E-002	4.10264E-005	10	...........
	52	1.06	5.17578E-002	1.29255E-005	0.00000E+000	5.20000E-002	4.48629E-005	10	...........
	56	1.14	5.57623E-002	1.38313E-005	0.00000E+000	5.60000E-002	4.96168E-005	10	...........
	60	1.22	5.97740E-002	1.52742E-005	0.00000E+000	6.00000E-002	4.16936E-005	10	...........
	64	1.3	6.37465E-002	1.62934E-005	0.00000E+000	6.40000E-002	4.69479E-005	10	...........
	68	1.38	6.77662E-002	1.76279E-005	0.00000E+000	6.80000E-002	4.50297E-005	10	...........
	72	1.46	7.17549E-002	1.85988E-005	0.00000E+000	7.20000E-002	4.36953E-005	10	...........
	76	1.54	7.57640E-002	1.97448E-005	0.00000E+000	7.60000E-002	4.36953E-005	10	...........
	80	1.62	7.97352E-002	2.11360E-005	0.00000E+000	8.00000E-002	5.14516E-005	10	...........
	84	1.7	8.37470E-002	2.24004E-005	0.00000E+000	8.40000E-002	4.97002E-005	10	...........
	88	1.78	8.77123E-002	2.38817E-005	0.00000E+000	8.80000E-002	4.75318E-005	10	...........
	92	1.86	9.17433E-002	2.50928E-005	0.00000E+000	9.20000E-002	4.22775E-005	10	...........
	96	1.94	9.57192E-002	2.60436E-005	0.00000E+000	9.60000E-002	3.74402E-005	10	...........
	100	2.02	9.97491E-002	2.76283E-005	0.00000E+000	1.00000E-001	4.17770E-005	10	...........
	104	2.1	1.03701E-001	2.90262E-005	0.00000E+000	1.04000E-001	3.80240E-005	10	...........
	108	2.18	1.07715E-001	2.98886E-005	0.00000E+000	1.08000E-001	4.01924E-005	10	...........
	112	2.26	1.11690E-001	3.17269E-005	0.00000E+000	1.12000E-001	5.05342E-005	10	...........
	116	2.34	1.15693E-001	3.27411E-005	0.00000E+000	1.16000E-001	4.86994E-005	10	...........
	120	2.42	1.19698E-001	3.39154E-005	0.00000E+000	1.20000E-001	4.99504E-005	10	...........
	124	2.5	1.23712E-001	3.55335E-005	0.00000E+000	1.24000E-001	3.93584E-005	10	...........
	128	2.58	1.27718E-001	3.67763E-005	0.00000E+000	1.28000E-001	4.10264E-005	10	...........
	132	2.66	1.31688E-001	3.78322E-005	0.00000E+000	1.32000E-001	4.80322E-005	10	...........
	136	2.74	1.35697E-001	3.99123E-005	0.00000E+000	1.36000E-001	5.16184E-005	10	...........
	140	2.82	1.39702E-001	4.08415E-005	0.00000E+000	1.40000E-001	4.36953E-005	10	...........
	144	2.9	1.43675E-001	4.15037E-005	0.00000E+000	1.44000E-001	4.41957E-005	10	...........
	148	2.98	1.47688E-001	4.24746E-005	0.00000E+000	1.48000E-001	4.57803E-005	10	...........
	152	3.06	1.51681E-001	4.35788E-005	0.00000E+000	1.52000E-001	4.87828E-005	10	...........
	156	3.14	1.55659E-001	4.49300E-005	0.00000E+000	1.56000E-001	3.91082E-005	10	...........
	160	3.22	1.59660E-001	4.69067E-005	0.00000E+000	1.60000E-001	4.56969E-005	10	...........
	164	3.3	1.63691E-001	4.83764E-005	0.00000E+000	1.64000E-001	4.56135E-005	10	...........
	168	3.38	1.67534E-001	4.95157E-005	0.00000E+000	1.68000E-001	4.15269E-005	10	...........
	172	3.46	1.71674E-001	5.04248E-005	0.00000E+000	1.72000E-001	4.74484E-005	10	...........
	176	3.54	1.75639E-001	5.16842E-005	0.00000E+000	1.76000E-001	5.78736E-005	10	...........
	180	3.62	1.79626E-001	5.32489E-005	0.00000E+000	1.80000E-001	4.92832E-005	10	...........
	184	3.7	1.83620E-001	5.42465E-005	0.00000E+000	1.84000E-001	5.49545E-005	10	...........
	188	3.78	1.87645E-001	5.64083E-005	0.00000E+000	1.88000E-001	4.51131E-005	10	...........
	192	3.86	1.91582E-001	5.73625E-005	0.00000E+000	1.92000E-001	3.97754E-005	10	...........
	196	3.94	1.95645E-001	5.81832E-005	0.00000E+000	1.96000E-001	5.07010E-005	10	...........
	200	4.02	1.99593E-001	5.94393E-005	0.00000E+000	2.00000E-001	5.12848E-005	10	...........
	204	4.1	2.03641E-001	6.10924E-005	0.00000E+000	2.04000E-001	4.00256E-005	10	...........
	208	4.18	2.07544E-001	6.23335E-005	0.00000E+000	2.08000E-001	4.11098E-005	10	...........
	212	4.26	2.11614E-001	6.38415E-005	0.00000E+000	2.12000E-001	4.70313E-005	10	...........
	216	4.34	2.15572E-001	6.50375E-005	0.00000E+000	2.16000E-001	4.86160E-005	10	...........
	220	4.42	2.19612E-001	6.57398E-005	0.00000E+000	2.20000E-001	5.02840E-005	10	...........
	224	4.5	2.23527E-001	6.70293E-005	0.00000E+000	2.24000E-001	4.80322E-005	10	...........
	228	4.58	2.27600E-001	6.83037E-005	0.00000E+000	2.28000E-001	5.12014E-005	10	...........
	232	4.66	2.31528E-001	6.95148E-005	0.00000E+000	2.32000E-001	4.21107E-005	10	...........
	236	4.74	2.35585E-001	7.10761E-005	0.00000E+000	2.36000E-001	4.29447E-005	10	...........
	240	4.82	2.39575E-001	7.23522E-005	0.00000E+000	2.40000E-001	4.16102E-005	10	...........
	244	4.9	2.43586E-001	7.36334E-005	0.00000E+000	2.44000E-001	4.90330E-005	10	...........
	248	4.98	2.47460E-001	7.44708E-005	0.00000E+000	2.48000E-001	5.01172E-005	10	...........
	252	5.06	2.51587E-001	7.54616E-005	0.00000E+000	2.52000E-001	4.66977E-005	10	...........
	256	5.14	2.55547E-001	7.63274E-005	0.00000E+000	2.56000E-001	4.57803E-005	10	...........
	260	5.22	2.59584E-001	7.76986E-005	0.00000E+000	2.60000E-001	5.81238E-005	10	...........
	264	5.3	2.63553E-001	7.92032E-005	0.00000E+000	2.64000E-001	4.54467E-005	10	...........
	268	5.38	2.67587E-001	8.09797E-005	0.00000E+000	2.68000E-001	4.36953E-005	10	...........
	272	5.46	2.71400E-001	8.18655E-005	0.00000E+000	2.72000E-001	4.34451E-005	10	...........
	276	5.54	2.75587E-001	8.28764E-005	0.00000E+000	2.76000E-001	5.37869E-005	10	...........
	280	5.62	2.79465E-001	8.44661E-005	0.00000E+000	2.80000E-001	3.97754E-005	10	...........
	284	5.7	2.83578E-001	8.56922E-005	0.00000E+000	2.84000E-001	3.84410E-005	10	...........
	288	5.78	2.87486E-001	8.71401E-005	0.00000E+000	2.88000E-001	3.73568E-005	10	...........
	292	5.86	2.91575E-001	8.87849E-005	0.00000E+000	2.92000E-001	3.86078E-005	10	...........
	296	5.94	2.95415E-001	8.92169E-005	0.00000E+000	2.96000E-001	4.11932E-005	10	...........
	300	6.02	2.99577E-001	8.99375E-005	0.00000E+000	3.00000E-001	5.01172E-005	10	...........
	304	6.1	3.03449E-001	9.13154E-005	0.00000E+000	3.04000E-001	4.24443E-005	10	...........
	308	6.18	3.07574E-001	9.22596E-005	0.00000E+000	3.08000E-001	3.81074E-005	10	...........
	312	6.26	3.11435E-001	9.39110E-005	0.00000E+000	3.12000E-001	4.51965E-005	10	...........
	316	6.34	3.15571E-001	9.54257E-005	0.00000E+000	3.16000E-001	4.28613E-005	10	...........
	320	6.42	3.19471E-001	9.68903E-005	0.00000E+000	3.20000E-001	3.89414E-005	10	...........
	324	6.5	3.23575E-001	9.78761E-005	0.00000E+000	3.24000E-001	4.47795E-005	10	...........
	328	6.58	3.27459E-001	9.87018E-005	0.00000E+000	3.28000E-001	3.56887E-005	10	...........
	332	6.66	3.31575E-001	1.00083E-004	0.00000E+000	3.32000E-001	3.82742E-005	10	...........
	336	6.74	3.35458E-001	1.01221E-004	0.00000E+000	3.36000E-001	4.65309E-005	10	...........
	340	6.82	3.39569E-001	1.02512E-004	0.00000E+000	3.40000E-001	4.55301E-005	10	...........
	344	6.9	3.43489E-001	1.04313E-004	0.00000E+000	3.44000E-001	4.66977E-005	10	...........
	348	6.98	3.47574E-001	1.05244E-004	0.00000E+000	3.48000E-001	3.65228E-005	10	...........
	352	7.06	3.51413E-001	1.05980E-004	0.00000E+000	3.52000E-001	4.76152E-005	10	...........
	356	7.14	3.55568E-001	1.06966E-004	0.00000E+000	3.56000E-001	3.11851E-005	10	...........
	360	7.22	3.59401E-001	1.08507E-004	0.00000E+000	3.60000E-001	3.76904E-005	10	...........
	364	7.3	3.63571E-001	1.09700E-004	0.00000E+000	3.64000E-001	4.38621E-005	10	...........
	368	7.38	3.67466E-001	1.11446E-004	0.00000E+000	3.68000E-001	4.21107E-005	10	...........
	372	7.46	3.71553E-001	1.12652E-004	0.00000E+000	3.72000E-001	4.58637E-005	10	...........
	376	7.54	3.75378E-001	1.13832E-004	0.00000E+000	3.76000E-001	4.54467E-005	10	...........
	380	7.62	3.79572E-001	1.14477E-004	0.00000E+000	3.80000E-001	4.23609E-005	10	...........
	384	7.7	3.83404E-001	1.16362E-004	0.00000E+000	3.84000E-001	3.43543E-005	10	...........
	388	7.78	3.87571E-001	1.17710E-004	0.00000E+000	3.88000E-001	4.72816E-005	10	...........
	392	7.86	3.91423E-001	1.19156E-004	0.00000E+000	3.92000E-001	4.03592E-005	10	...........
	396	7.94	3.95517E-001	1.20564E-004	0.00000E+000	3.96000E-001	4.46127E-005	10	...........
	400	8.02	3.99377E-001	1.21612E-004	0.00000E+000	4.00000E-001	3.81074E-005	10	...........
	404	8.1	4.03570E-001	1.22626E-004	0.00000E+000	4.04000E-001	4.36953E-005	10	...........
	408	8.18	4.07385E-001	1.24184E-004	0.00000E+000	4.08000E-001	3.91916E-005	10	...........
	412	8.26	4.11570E-001	1.25380E-004	0.00000E+000	4.12000E-001	3.81908E-005	10	...........
	416	8.34	4.15383E-001	1.26823E-004	0.00000E+000	4.16000E-001	3.80240E-005	10	...........
	420	8.42	4.19555E-001	1.28193E-004	0.00000E+000	4.20000E-001	3.85244E-005	10	...........
	424	8.5	4.23357E-001	1.29235E-004	0.00000E+000	4.24000E-001	3.10182E-005	10	...........
	428	8.58	4.27569E-001	1.30084E-004	0.00000E+000	4.28000E-001	3.54385E-005	10	...........
	432	8.66	4.31377E-001	1.31113E-004	0.00000E+000	4.32000E-001	4.26111E-005	10	...........
	436	8.74	4.35553E-001	1.32450E-004	0.00000E+000	4.36000E-001	4.30281E-005	10	...........
	440	8.82	4.39369E-001	1.34073E-004	0.00000E+000	4.40000E-001	4.44459E-005	10	...........
	444	8.9	4.43554E-001	1.35587E-004	0.00000E+000	4.44000E-001	3.88580E-005	10	...........
	448	8.98	4.47391E-001	1.37075E-004	0.00000E+000	4.48000E-001	3.46045E-005	10	...........
	452	9.06	4.51550E-001	1.37906E-004	0.00000E+000	4.52000E-001	3.76070E-005	10	...........
	456	9.14	4.55371E-001	1.39020E-004	0.00000E+000	4.56000E-001	3.92750E-005	10	...........
	460	9.22	4.59553E-001	1.39923E-004	0.00000E+000	4.60000E-001	3.29365E-005	10	...........
	464	9.3	4.63365E-001	1.41277E-004	0.00000E+000	4.64000E-001	3.80240E-005	10	...........
	468	9.38	4.67508E-001	1.42425E-004	0.00000E+000	4.68000E-001	4.42791E-005	10	...........
	472	9.46	4.71372E-001	1.44302E-004	0.00000E+000	4.72000E-001	3.80240E-005	10	...........
	476	9.54	4.75567E-001	1.45179E-004	0.00000E+000	4.76000E-001	4.96168E-005	10	...........
	480	9.62	4.79360E-001	1.46116E-004	0.00000E+000	4.80000E-001	3.58555E-005	10	...........
	484	9.7	4.83558E-001	1.47513E-004	0.00000E+000	4.84000E-001	4.10264E-005	10	...........
	488	9.78	4.87340E-001	1.48882E-004	0.00000E+000	4.88000E-001	3.68564E-005	10	...........
	492	9.86	4.91482E-001	1.50429E-004	0.00000E+000	4.92000E-001	3.96920E-005	10	...........
	496	9.94	4.95362E-001	1.51896E-004	0.00000E+000	4.96000E-001	4.52799E-005	10	...........
	500	10.02	4.99402E-001	1.52947E-004	0.00000E+000	5.00000E-001	4.42791E-005	10	...........
	504	10.1	5.03352E-001	1.53795E-004	0.00000E+000	5.04000E-001	5.10346E-005	10	...........
	508	10.18	5.07556E-001	1.54580E-004	0.00000E+000	5.08000E-001	4.71981E-005	10	...........
	512	10.26	5.11350E-001	1.56287E-004	0.00000E+000	5.12000E-001	4.56135E-005	10	...........
	516	10.34	5.15468E-001	1.57383E-004	0.00000E+000	5.16000E-001	4.60305E-005	10	...........
	520	10.42	5.19337E-001	1.59078E-004	0.00000E+000	5.20000E-001	3.76904E-005	10	...........
	524	10.5	5.23385E-001	1.60441E-004	0.00000E+000	5.24000E-001	3.59389E-005	10	...........
	528	10.58	5.27335E-001	1.61742E-004	0.00000E+000	5.28000E-001	3.86912E-005	10	...........
	532	10.66	5.31529E-001	1.62304E-004	0.00000E+000	5.32000E-001	4.65309E-005	10	...........
	536	10.74	5.35326E-001	1.63447E-004	0.00000E+000	5.36000E-001	4.01090E-005	10	...........
	540	10.82	5.39488E-001	1.65161E-004	0.00000E+000	5.40000E-001	3.57721E-005	10	...........
	544	10.9	5.43308E-001	1.66459E-004	0.00000E+000	5.44000E-001	3.71900E-005	10	...........
	548	10.98	5.47395E-001	1.68039E-004	0.00000E+000	5.48000E-001	3.97754E-005	10	...........
	552	11.06	5.51301E-001	1.69076E-004	0.00000E+000	5.52000E-001	3.12685E-005	10	...........
	556	11.14	5.55538E-001	1.69759E-004	0.00000E+000	5.56000E-001	4.50297E-005	10	...........
	560	11.22	5.59298E-001	1.70418E-004	0.00000E+000	5.60000E-001	3.86912E-005	10	...........
	564	11.3	5.63395E-001	1.71672E-004	0.00000E+000	5.64000E-001	4.16102E-005	10	...........
	568	11.38	5.67275E-001	1.73335E-004	0.00000E+000	5.68000E-001	3.41041E-005	10	...........
	572	11.46	5.71345E-001	1.75594E-004	0.00000E+000	5.72000E-001	4.16102E-005	10	...........
	576	11.54	5.75317E-001	1.76163E-004	0.00000E+000	5.76000E-001	4.15269E-005	10	...........
	580	11.62	5.79388E-001	1.77339E-004	0.00000E+000	5.80000E-001	3.77738E-005	10	...........
	584	11.7	5.83304E-001	1.77994E-004	0.00000E+000	5.84000E-001	3.56053E-005	10	...........
	588	11.78	5.87429E-001	1.78958E-004	0.00000E+000	5.88000E-001	3.46879E-005	10	...........
	592	11.86	5.91270E-001	1.80301E-004	0.00000E+000	5.92000E-001	2.99340E-005	10	...........
	596	11.94	5.95305E-001	1.82495E-004	0.00000E+000	5.96000E-001	3.65228E-005	10	...........
	600	12.02	5.99287E-001	1.84031E-004	0.00000E+000	6.00000E-001	4.40289E-005	10	...........
	604	12.1	6.03466E-001	1.84840E-004	0.00000E+000	6.04000E-001	4.02758E-005	10	...........
	608	12.18	6.07277E-001	1.85589E-004	0.00000E+000	6.08000E-001	4.22775E-005	10	...........
	612	12.26	6.11406E-001	1.86518E-004	0.00000E+000	6.12000E-001	4.74484E-005	10	...........
	616	12.34	6.15221E-001	1.87517E-004	0.00000E+000	6.16000E-001	4.95334E-005	10	...........
	620	12.42	6.19258E-001	1.89157E-004	0.00000E+000	6.20000E-001	4.11098E-005	10	...........
	624	12.5	6.23235E-001	1.90460E-004	0.00000E+000	6.24000E-001	4.63641E-005	10	...........
	628	12.58	6.27238E-001	1.91818E-004	0.00000E+000	6.28000E-001	4.41123E-005	10	...........
	632	12.66	6.31212E-001	1.93096E-004	0.00000E+000	6.32000E-001	3.70232E-005	10	...........
	636	12.74	6.35308E-001	1.94068E-004	0.00000E+000	6.36000E-001	3.45211E-005	10	...........
	640	12.82	6.39195E-001	1.95563E-004	0.00000E+000	6.40000E-001	4.39455E-005	10	...........
	644	12.9	6.43227E-001	1.96374E-004	0.00000E+000	6.44000E-001	3.98588E-005	10	...........
	648	12.98	6.47196E-001	1.98732E-004	0.00000E+000	6.48000E-001	3.54385E-005	10	...........
	652	13.06	6.51215E-001	2.00035E-004	0.00000E+000	6.52000E-001	4.54467E-005	10	...........
	656	13.14	6.55179E-001	2.01626E-004	0.00000E+000	6.56000E-001	3.75236E-005	10	...........
	660	13.22	6.59319E-001	2.02140E-004	0.00000E+000	6.60000E-001	4.05260E-005	10	...........
	664	13.3	6.63176E-001	2.03363E-004	0.00000E+000	6.64000E-001	3.71066E-005	10	...........
	668	13.38	6.67206E-001	2.04539E-004	0.00000E+000	6.68000E-001	4.07762E-005	10	...........
	672	13.46	6.71193E-001	2.06137E-004	0.00000E+000	6.72000E-001	2.40125E-005	10	...........
	676	13.54	6.75204E-001	2.07842E-004	0.00000E+000	6.76000E-001	3.76070E-005	10	...........
	680	13.62	6.79179E-001	2.08949E-004	0.00000E+000	6.80000E-001	3.42709E-005	10	...........
	684	13.7	6.83189E-001	2.09738E-004	0.00000E+000	6.84000E-001	4.58637E-005	10	...........
	688	13.78	6.87186E-001	2.10679E-004	0.00000E+000	6.88000E-001	3.80240E-005	10	...........
	692	13.86	6.91217E-001	2.11647E-004	0.00000E+000	6.92000E-001	4.01090E-005	10	...........
	696	13.94	6.95175E-001	2.13554E-004	0.00000E+000	6.96000E-001	3.66062E-005	10	...........
	700	14.02	6.99176E-001	2.15250E-004	0.00000E+000	7.00000E-001	3.26863E-005	10	...........
	704	14.1	7.03177E-001	2.17163E-004	0.00000E+000	7.04000E-001	3.40207E-005	10	...........
	708	14.18	7.07372E-001	2.17587E-004	0.00000E+000	7.08000E-001	3.43543E-005	10	...........
	712	14.26	7.11181E-001	2.18308E-004	0.00000E+000	7.12000E-001	3.72734E-005	10	...........
	716	14.34	7.15183E-001	2.19233E-004	0.00000E+000	7.16000E-001	3.57721E-005	10	...........
	720	14.42	7.19166E-001	2.21102E-004	0.00000E+000	7.20000E-001	3.88580E-005	10	...........
	724	14.5	7.23155E-001	2.22893E-004	0.00000E+000	7.24000E-001	3.44377E-005	10	...........
	728	14.58	7.27160E-001	2.24306E-004	0.00000E+000	7.28000E-001	3.85244E-005	10	...........
	732	14.66	7.31352E-001	2.25352E-004	0.00000E+000	7.32000E-001	4.19439E-005	10	...........
	736	14.74	7.35140E-001	2.26365E-004	0.00000E+000	7.36000E-001	3.11016E-005	10	...........
	740	14.82	7.39162E-001	2.26843E-004	0.00000E+000	7.40000E-001	3.74402E-005	10	...........
	744	14.9	7.43120E-001	2.28827E-004	0.00000E+000	7.44000E-001	3.78572E-005	10	...........
	748	14.98	7.47113E-001	2.30110E-004	0.00000E+000	7.48000E-001	4.23609E-005	10	...........
	752	15.06	7.51144E-001	2.32422E-004	0.00000E+000	7.52000E-001	3.91916E-005	10	...........
	756	15.14	7.55128E-001	2.32969E-004	0.00000E+000	7.56000E-001	3.94418E-005	10	...........
	760	15.22	7.59159E-001	2.34075E-004	0.00000E+000	7.60000E-001	3.33535E-005	10	...........
	764	15.3	7.63177E-001	2.34654E-004	0.00000E+000	7.64000E-001	3.59389E-005	10	...........
	768	15.38	7.67156E-001	2.35434E-004	0.00000E+000	7.68000E-001	3.86078E-005	10	...........
	772	15.46	7.71132E-001	2.36535E-004	0.00000E+000	7.72000E-001	5.00338E-005	10	...........
	776	15.54	7.75135E-001	2.38388E-004	0.00000E+000	7.76000E-001	4.22775E-005	10	...........
	780	15.62	7.79097E-001	2.40210E-004	0.00000E+000	7.80000E-001	4.89496E-005	10	...........
	784	15.7	7.83112E-001	2.41319E-004	0.00000E+000	7.84000E-001	3.86912E-005	10	...........
	788	15.78	7.87089E-001	2.41721E-004	0.00000E+000	7.88000E-001	2.91000E-005	10	...........
	792	15.86	7.91112E-001	2.43389E-004	0.00000E+000	7.92000E-001	3.86078E-005	10	...........
	796	15.94	7.95062E-001	2.44227E-004	0.00000E+000	7.96000E-001	3.46045E-005	10	...........
	800	16.02	7.99092E-001	2.46002E-004	0.00000E+000	8.00000E-001	3.66062E-005	10	...........
	804	16.1	7.95082E-001	2.44013E-004	0.00000E+000	7.96000E-001	4.82824E-005	10	...........
	808	16.18	7.91128E-001	2.42624E-004	0.00000E+000	7.92000E-001	3.25195E-005	10	...........
	812	16.26	7.87112E-001	2.41623E-004	0.00000E+000	7.88000E-001	3.26863E-005	10	...........
	816	16.34	7.83135E-001	2.41256E-004	0.00000E+000	7.84000E-001	3.87746E-005	10	...........
	820	16.42	7.79109E-001	2.40489E-004	0.00000E+000	7.80000E-001	4.65309E-005	10	...........
	824	16.5	7.75151E-001	2.38704E-004	0.00000E+000	7.76000E-001	3.82742E-005	10	...........
	828	16.58	7.71148E-001	2.37044E-004	0.00000E+000	7.72000E-001	4.08596E-005	10	...........
	832	16.66	7.67173E-001	2.36076E-004	0.00000E+000	7.68000E-001	4.59471E-005	10	...........
	836	16.74	7.63202E-001	2.35031E-004	0.00000E+000	7.64000E-001	4.23609E-005	10	...........
	840	16.82	7.59179E-001	2.34095E-004	0.00000E+000	7.60000E-001	3.46879E-005	10	...........
	844	16.9	7.55144E-001	2.33216E-004	0.00000E+000	7.56000E-001	3.69398E-005	10	...........
	848	16.98	7.51156E-001	2.31683E-004	0.00000E+000	7.52000E-001	3.98588E-005	10	...........
	852	17.06	7.47131E-001	2.30100E-004	0.00000E+000	7.48000E-001	3.22693E-005	10	...........
	856	17.14	7.43138E-001	2.28216E-004	0.00000E+000	7.44000E-001	4.10264E-005	10	...........
	860	17.22	7.39169E-001	2.26780E-004	0.00000E+000	7.40000E-001	4.21941E-005	10	...........
	864	17.3	7.35154E-001	2.25771E-004	0.00000E+000	7.36000E-001	3.91082E-005	10	...........
	868	17.38	7.31331E-001	2.25149E-004	0.00000E+000	7.32000E-001	4.21941E-005	10	...........
	872	17.46	7.27168E-001	2.23896E-004	0.00000E+000	7.28000E-001	4.27779E-005	10	...........
	876	17.54	7.23165E-001	2.22413E-004	0.00000E+000	7.24000E-001	4.66143E-005	10	...........
	880	17.62	7.19175E-001	2.20831E-004	0.00000E+000	7.20000E-001	3.63559E-005	10	...........
	884	17.7	7.15193E-001	2.19263E-004	0.00000E+000	7.16000E-001	4.52799E-005	10	...........
	888	17.78	7.11194E-001	2.18168E-004	0.00000E+000	7.12000E-001	3.44377E-005	10	...........
	892	17.86	7.07354E-001	2.17542E-004	0.00000E+000	7.08000E-001	4.40289E-005	10	...........
	896	17.94	7.03184E-001	2.17072E-004	0.00000E+000	7.04000E-001	3.09348E-005	10	...........
	900	18.02	6.99189E-001	2.15333E-004	0.00000E+000	7.00000E-001	4.21107E-005	10	...........
	904	18.1	6.95178E-001	2.13010E-004	0.00000E+000	6.96000E-001	4.45293E-005	10	...........
	908	18.18	6.91227E-001	2.12007E-004	0.00000E+000	6.92000E-001	3.96920E-005	10	...........
	912	18.26	6.87204E-001	2.10799E-004	0.00000E+000	6.88000E-001	3.68564E-005	10	...........
	916	18.34	6.83211E-001	2.09849E-004	0.00000E+000	6.84000E-001	3.86912E-005	10	...........
	920	18.42	6.79206E-001	2.08269E-004	0.00000E+000	6.80000E-001	3.74402E-005	10	...........
	924	18.5	6.75225E-001	2.07400E-004	0.00000E+000	6.76000E-001	4.03592E-005	10	...........
	928	18.58	6.71210E-001	2.05061E-004	0.00000E+000	6.72000E-001	4.15269E-005	10	...........
	932	18.66	6.67215E-001	2.03922E-004	0.00000E+000	6.68000E-001	4.89496E-005	10	...........
	936	18.74	6.63192E-001	2.03031E-004	0.00000E+000	6.64000E-001	4.62807E-005	10	...........
	940	18.82	6.59331E-001	2.02080E-004	0.00000E+000	6.60000E-001	3.89414E-005	10	...........
	944	18.9	6.55193E-001	2.01023E-004	0.00000E+000	6.56000E-001	4.61139E-005	10	...........
	948	18.98	6.51226E-001	1.99968E-004	0.00000E+000	6.52000E-001	4.78654E-005	10	...........
	952	19.06	6.47216E-001	1.98434E-004	0.00000E+000	6.48000E-001	4.19439E-005	10	...........
	956	19.14	6.43241E-001	1.96175E-004	0.00000E+000	6.44000E-001	4.16102E-005	10	...........
	960	19.22	6.39215E-001	1.95162E-004	0.00000E+000	6.40000E-001	4.70313E-005	10	...........
	964	19.3	6.35305E-001	1.94048E-004	0.00000E+000	6.36000E-001	4.69479E-005	10	...........
	968	19.38	6.31221E-001	1.93354E-004	0.00000E+000	6.32000E-001	4.23609E-005	10	...........
	972	19.46	6.27244E-001	1.92343E-004	0.00000E+000	6.28000E-001	3.72734E-005	10	...........
	976	19.54	6.23244E-001	1.90690E-004	0.00000E+000	6.24000E-001	3.85244E-005	10	...........
	980	19.62	6.19264E-001	1.88628E-004	0.00000E+000	6.20000E-001	3.74402E-005	10	...........
	984	19.7	6.15234E-001	1.87256E-004	0.00000E+000	6.16000E-001	4.91998E-005	10	...........
	988	19.78	6.11377E-001	1.86170E-004	0.00000E+000	6.12000E-001	4.05260E-005	10	...........
	992	19.86	6.07283E-001	1.85719E-004	0.00000E+000	6.08000E-001	3.91082E-005	10	...........
	996	19.94	6.03463E-001	1.84914E-004	0.00000E+000	6.04000E-001	4.53633E-005	10	...........
	1000	20.02	5.99291E-001	1.83326E-004	0.00000E+000	6.00000E-001	3.98588E-005	10	...........
	1004	20.1	5.95303E-001	1.81612E-004	0.00000E+000	5.96000E-001	3.37705E-005	10	...........
	1008	20.18	5.91280E-001	1.80151E-004	0.00000E+000	5.92000E-001	3.89414E-005	10	...........
	1012	20.26	5.87458E-001	1.78390E-004	0.00000E+000	5.88000E-001	3.63559E-005	10	...........
	1016	20.34	5.83319E-001	1.77971E-004	0.00000E+000	5.84000E-001	3.47713E-005	10	...........
	1020	20.42	5.79385E-001	1.77255E-004	0.00000E+000	5.80000E-001	4.65309E-005	10	...........
	1024	20.5	5.75331E-001	1.76331E-004	0.00000E+000	5.76000E-001	4.35285E-005	10	...........
	1028	20.58	5.71359E-001	1.74745E-004	0.00000E+000	5.72000E-001	3.66896E-005	10	...........
	1032	20.66	5.67296E-001	1.73223E-004	0.00000E+000	5.68000E-001	4.99504E-005	10	...........
	1036	20.74	5.63405E-001	1.71428E-004	0.00000E+000	5.64000E-001	4.34451E-005	10	...........
	1040	20.82	5.59315E-001	1.70523E-004	0.00000E+000	5.60000E-001	3.93584E-005	10	...........
	1044	20.9	5.55553E-001	1.69717E-004	0.00000E+000	5.56000E-001	5.50379E-005	10	...........
	1048	20.98	5.51314E-001	1.69208E-004	0.00000E+000	5.52000E-001	5.09512E-005	10	...........
	1052	21.06	5.47402E-001	1.67795E-004	0.00000E+000	5.48000E-001	4.41123E-005	10	...........
	1056	21.14	5.43332E-001	1.65865E-004	0.00000E+000	5.44000E-001	4.35285E-005	10	...........
	1060	21.22	5.39485E-001	1.64236E-004	0.00000E+000	5.40000E-001	4.61973E-005	10	...........
	1064	21.3	5.35343E-001	1.63223E-004	0.00000E+000	5.36000E-001	4.13600E-005	10	...........
	1068	21.38	5.31548E-001	1.61962E-004	0.00000E+000	5.32000E-001	4.43625E-005	10	...........
	1072	21.46	5.27349E-001	1.61215E-004	0.00000E+000	5.28000E-001	4.15269E-005	10	...........
	1076	21.54	5.23372E-001	1.59433E-004	0.00000E+000	5.24000E-001	4.14434E-005	10	...........
	1080	21.62	5.19354E-001	1.58127E-004	0.00000E+000	5.20000E-001	4.06094E-005	10	...........
	1084	21.7	5.15485E-001	1.56677E-004	0.00000E+000	5.16000E-001	4.06094E-005	10	...........
	1088	21.78	5.11368E-001	1.55246E-004	0.00000E+000	5.12000E-001	3.54385E-005	10	...........
	1092	21.86	5.07569E-001	1.54315E-004	0.00000E+000	5.08000E-001	4.84492E-005	10	...........
	1096	21.94	5.03363E-001	1.53663E-004	0.00000E+000	5.04000E-001	5.21188E-005	10	...........
	1100	22.02	4.99406E-001	1.52655E-004	0.00000E+000	5.00000E-001	4.63641E-005	10	...........
	1104	22.1	4.95371E-001	1.51398E-004	0.00000E+000	4.96000E-001	4.90330E-005	10	...........
	1108	22.18	4.91491E-001	1.49299E-004	0.00000E+000	4.92000E-001	4.26111E-005	10	...........
	1112	22.26	4.87360E-001	1.47926E-004	0.00000E+000	4.88000E-001	4.49463E-005	10	...........
	1116	22.34	4.83575E-001	1.46687E-004	0.00000E+000	4.84000E-001	4.98670E-005	10	...........
	1120	22.42	4.79377E-001	1.45589E-004	0.00000E+000	4.80000E-001	3.91916E-005	10	...........
	1124	22.5	4.75589E-001	1.44822E-004	0.00000E+000	4.76000E-001	4.06928E-005	10	...........
	1128	22.58	4.71391E-001	1.43442E-004	0.00000E+000	4.72000E-001	4.06094E-005	10	...........
	1132	22.66	4.67523E-001	1.42060E-004	0.00000E+000	4.68000E-001	4.39455E-005	10	...........
	1136	22.74	4.63384E-001	1.40213E-004	0.00000E+000	4.64000E-001	4.30281E-005	10	...........
	1140	22.82	4.59573E-001	1.38637E-004	0.00000E+000	4.60000E-001	4.39455E-005	10	...........
	1144	22.9	4.55385E-001	1.38021E-004	0.00000E+000	4.56000E-001	4.42791E-005	10	...........
	1148	22.98	4.51563E-001	1.37229E-004	0.00000E+000	4.52000E-001	4.84492E-005	10	...........
	1152	23.06	4.47402E-001	1.35542E-004	0.00000E+000	4.48000E-001	4.01924E-005	10	...........
	1156	23.14	4.43581E-001	1.34061E-004	0.00000E+000	4.44000E-001	5.01172E-005	10	...........
	1160	23.22	4.39388E-001	1.33225E-004	0.00000E+000	4.40000E-001	4.51965E-005	10	...........
	1164	23.3	4.35585E-001	1.31344E-004	0.00000E+000	4.36000E-001	4.19439E-005	10	...........
	1168	23.38	4.31394E-001	1.30433E-004	0.00000E+000	4.32000E-001	4.58637E-005	10	...........
	1172	23.46	4.27590E-001	1.29445E-004	0.00000E+000	4.28000E-001	4.56969E-005	10	...........
	1176	23.54	4.23374E-001	1.28029E-004	0.00000E+000	4.24000E-001	5.04508E-005	10	...........
	1180	23.62	4.19569E-001	1.27048E-004	0.00000E+000	4.20000E-001	4.51131E-005	10	...........
	1184	23.7	4.15400E-001	1.25689E-004	0.00000E+000	4.16000E-001	4.41957E-005	10	...........
	1188	23.78	4.11590E-001	1.24021E-004	0.00000E+000	4.12000E-001	4.56969E-005	10	...........
	1192	23.86	4.07404E-001	1.23427E-004	0.00000E+000	4.08000E-001	3.87746E-005	10	...........
	1196	23.94	4.03591E-001	1.21990E-004	0.00000E+000	4.04000E-001	5.79570E-005	10	...........
	1200	24.02	3.99395E-001	1.21287E-004	0.00000E+000	4.00000E-001	4.51131E-005	10	...........
	1204	24.1	3.95540E-001	1.19759E-004	0.00000E+000	3.96000E-001	3.53551E-005	10	...........
	1208	24.18	3.91435E-001	1.18524E-004	0.00000E+000	3.92000E-001	3.70232E-005	10	...........
	1212	24.26	3.87591E-001	1.17019E-004	0.00000E+000	3.88000E-001	4.05260E-005	10	...........
	1216	24.34	3.83409E-001	1.15697E-004	0.00000E+000	3.84000E-001	3.67730E-005	10	...........
	1220	24.42	3.79592E-001	1.14339E-004	0.00000E+000	3.80000E-001	4.45293E-005	10	...........
	1224	24.5	3.75397E-001	1.13345E-004	0.00000E+000	3.76000E-001	4.87828E-005	10	...........
	1228	24.58	3.71573E-001	1.12307E-004	0.00000E+000	3.72000E-001	4.59471E-005	10	...........
	1232	24.66	3.67482E-001	1.10836E-004	0.00000E+000	3.68000E-001	4.67811E-005	10	...........
	1236	24.74	3.63592E-001	1.09466E-004	0.00000E+000	3.64000E-001	4.97836E-005	10	...........
	1240	24.82	3.59426E-001	1.08524E-004	0.00000E+000	3.60000E-001	4.90330E-005	10	...........
	1244	24.9	3.55587E-001	1.07099E-004	0.00000E+000	3.56000E-001	4.78654E-005	10	...........
	1248	24.98	3.51431E-001	1.06068E-004	0.00000E+000	3.52000E-001	3.91082E-005	10	...........
	1252	25.06	3.47593E-001	1.05640E-004	0.00000E+000	3.48000E-001	4.28613E-005	10	...........
	1256	25.14	3.43504E-001	1.04342E-004	0.00000E+000	3.44000E-001	5.20354E-005	10	...........
	1260	25.22	3.39591E-001	1.02820E-004	0.00000E+000	3.40000E-001	4.55301E-005	10	...........
	1264	25.3	3.35471E-001	1.00770E-004	0.00000E+000	3.36000E-001	4.71148E-005	10	...........
	1268	25.38	3.31595E-001	1.00016E-004	0.00000E+000	3.32000E-001	3.91916E-005	10	...........
	1272	25.46	3.27465E-001	9.82715E-005	0.00000E+000	3.28000E-001	4.45293E-005	10	...........
	1276	25.54	3.23594E-001	9.73373E-005	0.00000E+000	3.24000E-001	5.11180E-005	10	...........
	1280	25.62	3.19488E-001	9.64649E-005	0.00000E+000	3.20000E-001	4.27779E-005	10	...........
	1284	25.7	3.15592E-001	9.49469E-005	0.00000E+000	3.16000E-001	4.33617E-005	10	...........
	1288	25.78	3.11443E-001	9.34373E-005	0.00000E+000	3.12000E-001	4.76986E-005	10	...........
	1292	25.86	3.07594E-001	9.22479E-005	0.00000E+000	3.08000E-001	4.74484E-005	10	...........
	1296	25.94	3.03457E-001	9.03179E-005	0.00000E+000	3.04000E-001	4.59471E-005	10	...........
	1300	26.02	2.99600E-001	8.96356E-005	0.00000E+000	3.00000E-001	5.25359E-005	10	...........
	1304	26.1	2.95428E-001	8.88349E-005	0.00000E+000	2.96000E-001	5.26193E-005	10	...........
	1308	26.18	2.91596E-001	8.71635E-005	0.00000E+000	2.92000E-001	4.90330E-005	10	...........
	1312	26.26	2.87502E-001	8.59974E-005	0.00000E+000	2.88000E-001	4.61973E-005	10	...........
	1316	26.34	2.83597E-001	8.46546E-005	0.00000E+000	2.84000E-001	5.12848E-005	10	...........
	1320	26.42	2.79473E-001	8.27680E-005	0.00000E+000	2.80000E-001	5.56217E-005	10	...........
	1324	26.5	2.75607E-001	8.20440E-005	0.00000E+000	2.76000E-001	5.57885E-005	10	...........
	1328	26.58	2.71428E-001	8.11382E-005	0.00000E+000	2.72000E-001	4.33617E-005	10	...........
	1332	26.66	2.67607E-001	7.91565E-005	0.00000E+000	2.68000E-001	5.10346E-005	10	...........
	1336	26.74	2.63572E-001	7.77719E-005	0.00000E+000	2.64000E-001	5.27027E-005	10	...........
	1340	26.82	2.59601E-001	7.68145E-005	0.00000E+000	2.60000E-001	5.01172E-005	10	...........
	1344	26.9	2.55554E-001	7.55600E-005	0.00000E+000	2.56000E-001	5.77067E-005	10	...........
	1348	26.98	2.51606E-001	7.46009E-005	0.00000E+000	2.52000E-001	3.70232E-005	10	...........
	1352	27.06	2.47482E-001	7.38385E-005	0.00000E+000	2.48000E-001	5.42873E-005	10	...........
	1356	27.14	2.43601E-001	7.24957E-005	0.00000E+000	2.44000E-001	5.26193E-005	10	...........
	1360	27.22	2.39595E-001	7.08109E-005	0.00000E+000	2.40000E-001	4.15269E-005	10	...........
	1364	27.3	2.35605E-001	6.98567E-005	0.00000E+000	2.36000E-001	4.11098E-005	10	...........
	1368	27.38	2.31539E-001	6.81602E-005	0.00000E+000	2.32000E-001	4.85326E-005	10	...........
	1372	27.46	2.27616E-001	6.72428E-005	0.00000E+000	2.28000E-001	4.97002E-005	10	...........
	1376	27.54	2.23530E-001	6.56764E-005	0.00000E+000	2.24000E-001	4.97002E-005	10	...........
	1380	27.62	2.19617E-001	6.48240E-005	0.00000E+000	2.20000E-001	5.32865E-005	10	...........
	1384	27.7	2.15586E-001	6.35396E-005	0.00000E+000	2.16000E-001	4.51131E-005	10	...........
	1388	27.78	2.11622E-001	6.25420E-005	0.00000E+000	2.12000E-001	5.19520E-005	10	...........
	1392	27.86	2.07559E-001	6.11375E-005	0.00000E+000	2.08000E-001	3.85244E-005	10	...........
	1396	27.94	2.03659E-001	5.97379E-005	0.00000E+000	2.04000E-001	4.54467E-005	10	...........
	1400	28.02	1.99597E-001	5.84134E-005	0.00000E+000	2.00000E-001	4.39455E-005	10	...........
	1404	28.1	1.95652E-001	5.74576E-005	0.00000E+000	1.96000E-001	4.46127E-005	10	...........
	1408	28.18	1.91597E-001	5.63300E-005	0.00000E+000	1.92000E-001	4.70313E-005	10	...........
	1412	28.26	1.87656E-001	5.47669E-005	0.00000E+000	1.88000E-001	4.43625E-005	10	...........
	1416	28.34	1.83623E-001	5.36459E-005	0.00000E+000	1.84000E-001	5.46209E-005	10	...........
	1420	28.42	1.79644E-001	5.22097E-005	0.00000E+000	1.80000E-001	4.04426E-005	10	...........
	1424	28.5	1.75639E-001	5.11121E-005	0.00000E+000	1.76000E-001	3.83576E-005	10	...........
	1428	28.58	1.71679E-001	4.98660E-005	0.00000E+000	1.72000E-001	4.44459E-005	10	...........
	1432	28.66	1.67555E-001	4.88017E-005	0.00000E+000	1.68000E-001	4.23609E-005	10	...........
	1436	28.74	1.63691E-001	4.79193E-005	0.00000E+000	1.64000E-001	4.45293E-005	10	...........
	1440	28.82	1.59672E-001	4.64046E-005	0.00000E+000	1.60000E-001	4.37787E-005	10	...........
	1444	28.9	1.55659E-001	4.52753E-005	0.00000E+000	1.56000E-001	4.75318E-005	10	...........
	1448	28.98	1.51668E-001	4.41510E-005	0.00000E+000	1.52000E-001	5.54549E-005	10	...........
	1452	29.06	1.47689E-001	4.23511E-005	0.00000E+000	1.48000E-001	5.47877E-005	10	...........
	1456	29.14	1.43680E-001	4.15921E-005	0.00000E+000	1.44000E-001	4.09430E-005	10	...........
	1460	29.22	1.39706E-001	4.06730E-005	0.00000E+000	1.40000E-001	4.67811E-005	10	...........
	1464	29.3	1.35701E-001	3.92334E-005	0.00000E+000	1.36000E-001	4.94500E-005	10	...........
	1468	29.38	1.31688E-001	3.77638E-005	0.00000E+000	1.32000E-001	4.56135E-005	10	...........
	1472	29.46	1.27719E-001	3.61474E-005	0.00000E+000	1.28000E-001	4.45293E-005	10	...........
	1476	29.54	1.23715E-001	3.45693E-005	0.00000E+000	1.24000E-001	5.29529E-005	10	...........
	1480	29.62	1.19702E-001	3.36285E-005	0.00000E+000	1.20000E-001	4.84492E-005	10	...........
	1484	29.7	1.15705E-001	3.24008E-005	0.00000E+000	1.16000E-001	4.01090E-005	10	...........
	1488	29.78	1.11703E-001	3.08394E-005	0.00000E+000	1.12000E-001	3.81074E-005	10	...........
	1492	29.86	1.07727E-001	2.99787E-005	0.00000E+000	1.08000E-001	4.11932E-005	10	...........
	1496	29.94	1.03711E-001	2.81704E-005	0.00000E+000	1.04000E-001	4.30281E-005	10	...........
	1500	30.02	9.97556E-002	2.73647E-005	0.00000E+000	1.00000E-001	4.90330E-005	10	...........
	1504	30.1	9.57298E-002	2.58434E-005	0.00000E+000	9.60000E-002	4.67811E-005	10	...........
	1508	30.18	9.17487E-002	2.49526E-005	0.00000E+000	9.20000E-002	4.75318E-005	10	...........
	1512	30.26	8.77335E-002	2.39401E-005	0.00000E+000	8.80000E-002	4.39455E-005	10	...........
	1516	30.34	8.37633E-002	2.23687E-005	0.00000E+000	8.40000E-002	5.07010E-005	10	...........
	1520	30.42	7.97543E-002	2.08441E-005	0.00000E+000	8.00000E-002	4.66143E-005	10	...........
	1524	30.5	7.57741E-002	1.94312E-005	0.00000E+000	7.60000E-002	4.67811E-005	10	...........
	1528	30.58	7.17702E-002	1.86021E-005	0.00000E+000	7.20000E-002	5.01172E-005	10	...........
	1532	30.66	6.77850E-002	1.74294E-005	0.00000E+000	6.80000E-002	4.79488E-005	10	...........
	1536	30.74	6.37561E-002	1.61917E-005	0.00000E+000	6.40000E-002	4.83658E-005	10	...........
	1540	30.82	5.97885E-002	1.46770E-005	0.00000E+000	6.00000E-002	4.76152E-005	10	...........
	1544	30.9	5.57877E-002	1.30489E-005	0.00000E+000	5.60000E-002	4.97002E-005	10	...........
	1548	30.98	5.17656E-002	1.22282E-005	0.00000E+000	5.20000E-002	4.81156E-005	10	...........
	1552	31.06	4.77937E-002	1.09121E-005	0.00000E+000	4.80000E-002	4.97836E-005	10	...........
	1556	31.14	4.38061E-002	1.00997E-005	0.00000E+000	4.40000E-002	4.36953E-005	10	...........
	1560	31.22	3.97986E-002	9.16722E-006	0.00000E+000	4.00000E-002	4.07762E-005	10	...........
	1564	31.3	3.57967E-002	7.99787E-006	0.00000E+000	3.60000E-002	5.21188E-005	10	...........
	1568	31.38	3.17894E-002	6.44652E-006	0.00000E+000	3.20000E-002	4.81990E-005	10	...........
	1572	31.46	2.77788E-002	5.32721E-006	0.00000E+000	2.80000E-002	5.32031E-005	10	...........
	1576	31.54	2.37987E-002	3.85760E-006	0.00000E+000	2.40000E-002	4.93666E-005	10	...........
	1580	31.62	1.98003E-002	2.59817E-006	0.00000E+000	2.00000E-002	5.41205E-005	10	...........
	1584	31.7	1.57870E-002	1.41881E-006	0.00000E+000	1.60000E-002	5.25359E-005	10	...........
	1588	31.78	1.17709E-002	-1.57725E-008	0.00000E+000	1.20000E-002	5.27027E-005	10	...........
	1592	31.86	7.76758E-003	-1.01164E-006	0.00000E+000	8.00002E-003	4.79488E-005	10	...........
	1596	31.94	3.79817E-003	-2.62471E-006	0.00000E+000	4.00001E-003	6.00420E-005	10	...........
[...]
	2341	46.84	-2.58825E-001	-8.46578E-005	0.00000E+000	-2.59000E-001	4.55301E-005	10	...........
	2342	46.86	-2.57938E-001	-8.42875E-005	0.00000E+000	-2.58000E-001	4.54467E-005	10	...........
	2343	46.88	-2.56881E-001	-8.43909E-005	0.00000E+000	-2.57000E-001	3.36871E-005	10	...........
	2344	46.9	-2.55870E-001	-8.36252E-005	0.00000E+000	-2.56000E-001	3.25195E-005	10	...........
	2345	46.92	-2.54990E-001	-8.34968E-005	0.00000E+000	-2.55000E-001	3.98588E-005	10	...........
	2346	46.94	-2.53930E-001	-8.29046E-005	0.00000E+000	-2.54000E-001	3.27697E-005	10	...........
	2347	46.96	-2.52929E-001	-8.25910E-005	0.00000E+000	-2.53000E-001	3.66062E-005	10	...........
	2348	46.98	-2.51932E-001	-8.21856E-005	0.00000E+000	-2.52000E-001	3.80240E-005	10	...........
	2349	47	-2.50847E-001	-8.22540E-005	0.00000E+000	-2.51000E-001	4.10264E-005	10	...........
	2350	47.02	-2.49962E-001	-8.14567E-005	0.00000E+000	-2.50000E-001	3.83576E-005	10	...........
	2351	47.04	-2.48928E-001	-8.09512E-005	0.00000E+000	-2.49000E-001	4.31115E-005	10	...........
	2352	47.06	-2.47955E-001	-8.10096E-005	0.00000E+000	-2.48000E-001	3.41041E-005	10	...........
	2353	47.08	-2.46979E-001	-8.03207E-005	0.00000E+000	-2.47000E-001	3.14353E-005	10	...........
	2354	47.1	-2.45951E-001	-8.00555E-005	0.00000E+000	-2.46000E-001	4.46961E-005	10	...........
	2355	47.12	-2.44994E-001	-7.98469E-005	0.00000E+000	-2.45000E-001	3.98588E-005	10	...........
	2356	47.14	-2.43984E-001	-7.93332E-005	0.00000E+000	-2.44000E-001	3.37705E-005	10	...........
	2357	47.16	-2.42974E-001	-7.90095E-005	0.00000E+000	-2.43000E-001	3.36871E-005	10	...........
	2358	47.18	-2.42075E-001	-7.91563E-005	0.00000E+000	-2.42000E-001	3.75236E-005	10	...........
	2359	47.2	-2.40989E-001	-7.88094E-005	0.00000E+000	-2.41000E-001	3.29365E-005	10	...........
	2360	47.22	-2.39945E-001	-7.86976E-005	0.00000E+000	-2.40000E-001	3.79406E-005	10	...........
	2361	47.24	-2.39017E-001	-7.82639E-005	0.00000E+000	-2.39000E-001	3.93584E-005	10	...........
	2362	47.26	-2.37950E-001	-7.79736E-005	0.00000E+000	-2.38000E-001	3.43543E-005	10	...........
	2363	47.28	-2.37017E-001	-7.77301E-005	0.00000E+000	-2.37000E-001	4.35285E-005	10	...........
	2364	47.3	-2.35964E-001	-7.75316E-005	0.00000E+000	-2.36000E-001	4.14434E-005	10	...........
	2365	47.32	-2.34840E-001	-7.69277E-005	0.00000E+000	-2.35000E-001	4.12766E-005	10	...........
	2366	47.34	-2.33994E-001	-7.68343E-005	0.00000E+000	-2.34000E-001	4.16102E-005	10	...........
	2367	47.36	-2.32961E-001	-7.63355E-005	0.00000E+000	-2.33000E-001	3.98588E-005	10	...........
	2368	47.38	-2.31972E-001	-7.62238E-005	0.00000E+000	-2.32000E-001	4.21941E-005	10	...........
	2369	47.4	-2.31005E-001	-7.58435E-005	0.00000E+000	-2.31000E-001	3.59389E-005	10	...........
	2370	47.42	-2.29976E-001	-7.57817E-005	0.00000E+000	-2.30000E-001	4.07762E-005	10	...........
	2371	47.44	-2.29028E-001	-7.53530E-005	0.00000E+000	-2.29000E-001	4.32783E-005	10	...........
	2372	47.46	-2.27981E-001	-7.51212E-005	0.00000E+000	-2.28000E-001	3.36871E-005	10	...........
	2373	47.48	-2.26897E-001	-7.48259E-005	0.00000E+000	-2.27000E-001	3.88580E-005	10	...........
	2374	47.5	-2.26021E-001	-7.46257E-005	0.00000E+000	-2.26000E-001	3.69398E-005	10	...........
	2375	47.52	-2.25001E-001	-7.44072E-005	0.00000E+000	-2.25000E-001	4.08596E-005	10	...........
	2376	47.54	-2.24005E-001	-7.39952E-005	0.00000E+000	-2.24000E-001	4.27779E-005	10	...........
	2377	47.56	-2.23018E-001	-7.38084E-005	0.00000E+000	-2.23000E-001	3.36037E-005	10	...........
	2378	47.58	-2.22002E-001	-7.35081E-005	0.00000E+000	-2.22000E-001	3.89414E-005	10	...........
	2379	47.6	-2.21026E-001	-7.29826E-005	0.00000E+000	-2.21000E-001	3.71900E-005	10	...........
	2380	47.62	-2.20016E-001	-7.24622E-005	0.00000E+000	-2.20000E-001	3.37705E-005	10	...........
	2381	47.64	-2.19017E-001	-7.18583E-005	0.00000E+000	-2.19000E-001	3.79406E-005	10	...........
	2382	47.66	-2.18020E-001	-7.18850E-005	0.00000E+000	-2.18000E-001	3.45211E-005	10	...........
	2383	47.68	-2.17047E-001	-7.14730E-005	0.00000E+000	-2.17000E-001	4.35285E-005	10	...........
	2384	47.7	-2.16033E-001	-7.13028E-005	0.00000E+000	-2.16000E-001	3.04344E-005	10	...........
	2385	47.72	-2.15075E-001	-7.07490E-005	0.00000E+000	-2.15000E-001	3.95252E-005	10	...........
	2386	47.74	-2.14017E-001	-7.09642E-005	0.00000E+000	-2.14000E-001	3.21025E-005	10	...........
	2387	47.76	-2.13035E-001	-7.05789E-005	0.00000E+000	-2.13000E-001	3.41875E-005	10	...........
	2388	47.78	-2.12008E-001	-7.04471E-005	0.00000E+000	-2.12000E-001	2.68482E-005	10	...........
	2389	47.8	-2.10912E-001	-7.02903E-005	0.00000E+000	-2.11000E-001	3.34369E-005	10	...........
	2390	47.82	-2.10035E-001	-7.01368E-005	0.00000E+000	-2.10000E-001	3.91082E-005	10	...........
	2391	47.84	-2.08977E-001	-6.98666E-005	0.00000E+000	-2.09000E-001	3.39373E-005	10	...........
	2392	47.86	-2.07994E-001	-6.96164E-005	0.00000E+000	-2.08000E-001	3.85244E-005	10	...........
	2393	47.88	-2.07021E-001	-6.87406E-005	0.00000E+000	-2.07000E-001	4.56969E-005	10	...........
	2394	47.9	-2.05979E-001	-6.82735E-005	0.00000E+000	-2.06000E-001	4.07762E-005	10	...........
	2395	47.92	-2.05029E-001	-6.80550E-005	0.00000E+000	-2.05000E-001	4.25277E-005	10	...........
	2396	47.94	-2.04039E-001	-6.78732E-005	0.00000E+000	-2.04000E-001	3.95252E-005	10	...........
	2397	47.96	-2.02920E-001	-6.73027E-005	0.00000E+000	-2.03000E-001	3.60223E-005	10	...........
	2398	47.98	-2.02079E-001	-6.72393E-005	0.00000E+000	-2.02000E-001	4.84492E-005	10	...........
	2399	48	-2.01015E-001	-6.70208E-005	0.00000E+000	-2.01000E-001	4.36119E-005	10	...........
	2400	48.02	-2.00057E-001	-6.66871E-005	0.00000E+000	-2.00000E-001	3.74402E-005	10	...........
	2401	48.04	-1.99051E-001	-6.63485E-005	0.00000E+000	-1.99000E-001	4.13600E-005	10	...........
	2402	48.06	-1.98021E-001	-6.61917E-005	0.00000E+000	-1.98000E-001	4.47795E-005	10	...........
	2403	48.08	-1.97059E-001	-6.56980E-005	0.00000E+000	-1.97000E-001	4.30281E-005	10	...........
	2404	48.1	-1.96050E-001	-6.52292E-005	0.00000E+000	-1.96000E-001	3.76070E-005	10	...........
	2405	48.12	-1.95007E-001	-6.45987E-005	0.00000E+000	-1.95000E-001	3.37705E-005	10	...........
	2406	48.14	-1.94068E-001	-6.42534E-005	0.00000E+000	-1.94000E-001	3.88580E-005	10	...........
	2407	48.16	-1.93064E-001	-6.38680E-005	0.00000E+000	-1.93000E-001	3.82742E-005	10	...........
	2408	48.18	-1.92068E-001	-6.33492E-005	0.00000E+000	-1.92000E-001	3.88580E-005	10	...........
	2409	48.2	-1.91104E-001	-6.32358E-005	0.00000E+000	-1.91000E-001	4.23609E-005	10	...........
	2410	48.22	-1.90026E-001	-6.32341E-005	0.00000E+000	-1.90000E-001	4.13600E-005	10	...........
	2411	48.24	-1.89072E-001	-6.29289E-005	0.00000E+000	-1.89000E-001	4.54467E-005	10	...........
	2412	48.26	-1.88021E-001	-6.23083E-005	0.00000E+000	-1.88000E-001	3.72734E-005	10	...........
	2413	48.28	-1.86875E-001	-6.22149E-005	0.00000E+000	-1.87000E-001	3.74402E-005	10	...........
	2414	48.3	-1.86069E-001	-6.21816E-005	0.00000E+000	-1.86000E-001	3.57721E-005	10	...........
	2415	48.32	-1.85013E-001	-6.20214E-005	0.00000E+000	-1.85000E-001	4.10264E-005	10	...........
	2416	48.34	-1.83952E-001	-6.16027E-005	0.00000E+000	-1.84000E-001	4.05260E-005	10	...........
	2417	48.36	-1.83020E-001	-6.14976E-005	0.00000E+000	-1.83000E-001	4.07762E-005	10	...........
	2418	48.38	-1.81989E-001	-6.13525E-005	0.00000E+000	-1.82000E-001	4.61973E-005	10	...........
	2419	48.4	-1.81043E-001	-6.08204E-005	0.00000E+000	-1.81000E-001	5.12848E-005	10	...........
	2420	48.42	-1.80000E-001	-6.05568E-005	0.00000E+000	-1.80000E-001	4.16936E-005	10	...........
	2421	48.44	-1.78847E-001	-6.01665E-005	0.00000E+000	-1.79000E-001	4.94500E-005	10	...........
	2422	48.46	-1.78076E-001	-5.97544E-005	0.00000E+000	-1.78000E-001	4.66143E-005	10	...........
	2423	48.48	-1.77024E-001	-5.94091E-005	0.00000E+000	-1.77000E-001	4.91998E-005	10	...........
	2424	48.5	-1.76047E-001	-5.87703E-005	0.00000E+000	-1.76000E-001	4.08596E-005	10	...........
	2425	48.52	-1.75026E-001	-5.83632E-005	0.00000E+000	-1.75000E-001	4.56969E-005	10	...........
	2426	48.54	-1.74003E-001	-5.83115E-005	0.00000E+000	-1.74000E-001	4.26111E-005	10	...........
	2427	48.56	-1.73053E-001	-5.80146E-005	0.00000E+000	-1.73000E-001	4.41957E-005	10	...........
	2428	48.58	-1.72026E-001	-5.79028E-005	0.00000E+000	-1.72000E-001	3.15187E-005	10	...........
	2429	48.6	-1.70965E-001	-5.71989E-005	0.00000E+000	-1.71000E-001	3.36871E-005	10	...........
	2430	48.62	-1.70071E-001	-5.73924E-005	0.00000E+000	-1.70000E-001	4.25277E-005	10	...........
	2431	48.64	-1.69031E-001	-5.66634E-005	0.00000E+000	-1.69000E-001	4.07762E-005	10	...........
	2432	48.66	-1.68062E-001	-5.57943E-005	0.00000E+000	-1.68000E-001	3.51049E-005	10	...........
	2433	48.68	-1.67049E-001	-5.56342E-005	0.00000E+000	-1.67000E-001	3.76070E-005	10	...........
	2434	48.7	-1.66012E-001	-5.53239E-005	0.00000E+000	-1.66000E-001	3.26863E-005	10	...........
	2435	48.72	-1.65094E-001	-5.50253E-005	0.00000E+000	-1.65000E-001	4.74484E-005	10	...........
	2436	48.74	-1.64040E-001	-5.49920E-005	0.00000E+000	-1.64000E-001	3.14353E-005	10	...........
	2437	48.76	-1.62864E-001	-5.48118E-005	0.00000E+000	-1.63000E-001	4.66977E-005	10	...........
	2438	48.78	-1.62087E-001	-5.43864E-005	0.00000E+000	-1.62000E-001	4.46127E-005	10	...........
	2439	48.8	-1.60985E-001	-5.42280E-005	0.00000E+000	-1.61000E-001	3.82742E-005	10	...........
	2440	48.82	-1.59991E-001	-5.40111E-005	0.00000E+000	-1.60000E-001	3.92750E-005	10	...........
	2441	48.84	-1.59034E-001	-5.35991E-005	0.00000E+000	-1.59000E-001	4.26945E-005	10	...........
	2442	48.86	-1.58007E-001	-5.32505E-005	0.00000E+000	-1.58000E-001	4.23609E-005	10	...........
	2443	48.88	-1.57037E-001	-5.29535E-005	0.00000E+000	-1.57000E-001	4.36119E-005	10	...........
	2444	48.9	-1.56012E-001	-5.28451E-005	0.00000E+000	-1.56000E-001	3.98588E-005	10	...........
	2445	48.92	-1.54918E-001	-5.23997E-005	0.00000E+000	-1.55000E-001	4.25277E-005	10	...........
	2446	48.94	-1.54071E-001	-5.21528E-005	0.00000E+000	-1.54000E-001	4.50297E-005	10	...........
	2447	48.96	-1.53024E-001	-5.22146E-005	0.00000E+000	-1.53000E-001	5.05342E-005	10	...........
	2448	48.98	-1.52034E-001	-5.17024E-005	0.00000E+000	-1.52000E-001	3.47713E-005	10	...........
	2449	49	-1.51041E-001	-5.14005E-005	0.00000E+000	-1.51000E-001	4.01090E-005	10	...........
	2450	49.02	-1.50010E-001	-5.11953E-005	0.00000E+000	-1.50000E-001	4.39455E-005	10	...........
	2451	49.04	-1.49064E-001	-5.09851E-005	0.00000E+000	-1.49000E-001	4.37787E-005	10	...........
	2452	49.06	-1.48049E-001	-5.06782E-005	0.00000E+000	-1.48000E-001	3.96920E-005	10	...........
	2453	49.08	-1.46998E-001	-5.05197E-005	0.00000E+000	-1.47000E-001	4.53633E-005	10	...........
	2454	49.1	-1.46086E-001	-5.02528E-005	0.00000E+000	-1.46000E-001	4.72816E-005	10	...........
	2455	49.12	-1.45053E-001	-4.96023E-005	0.00000E+000	-1.45000E-001	4.87828E-005	10	...........
	2456	49.14	-1.44068E-001	-4.92336E-005	0.00000E+000	-1.44000E-001	3.91916E-005	10	...........
	2457	49.16	-1.43063E-001	-4.90368E-005	0.00000E+000	-1.43000E-001	4.30281E-005	10	...........
	2458	49.18	-1.42068E-001	-4.87465E-005	0.00000E+000	-1.42000E-001	4.07762E-005	10	...........
	2459	49.2	-1.41099E-001	-4.83829E-005	0.00000E+000	-1.41000E-001	5.07010E-005	10	...........
	2460	49.22	-1.40098E-001	-4.80709E-005	0.00000E+000	-1.40000E-001	4.36953E-005	10	...........
	2461	49.24	-1.38916E-001	-4.73854E-005	0.00000E+000	-1.39000E-001	4.55301E-005	10	...........
	2462	49.26	-1.38178E-001	-4.71618E-005	0.00000E+000	-1.38000E-001	3.58555E-005	10	...........
	2463	49.28	-1.37037E-001	-4.68999E-005	0.00000E+000	-1.37000E-001	4.50297E-005	10	...........
	2464	49.3	-1.36113E-001	-4.66464E-005	0.00000E+000	-1.36000E-001	3.98588E-005	10	...........
	2465	49.32	-1.35060E-001	-4.60742E-005	0.00000E+000	-1.35000E-001	3.84410E-005	10	...........
	2466	49.34	-1.34020E-001	-4.62510E-005	0.00000E+000	-1.34000E-001	3.57721E-005	10	...........
	2467	49.36	-1.33090E-001	-4.58257E-005	0.00000E+000	-1.33000E-001	4.35285E-005	10	...........
	2468	49.38	-1.32055E-001	-4.58624E-005	0.00000E+000	-1.32000E-001	4.08596E-005	10	...........
	2469	49.4	-1.30920E-001	-4.52001E-005	0.00000E+000	-1.31000E-001	4.58637E-005	10	...........
	2470	49.42	-1.30133E-001	-4.49215E-005	0.00000E+000	-1.30000E-001	5.02006E-005	10	...........
	2471	49.44	-1.29049E-001	-4.47180E-005	0.00000E+000	-1.29000E-001	4.28613E-005	10	...........
	2472	49.46	-1.28085E-001	-4.38523E-005	0.00000E+000	-1.28000E-001	4.62807E-005	10	...........
	2473	49.48	-1.27085E-001	-4.35170E-005	0.00000E+000	-1.27000E-001	3.57721E-005	10	...........
	2474	49.5	-1.26029E-001	-4.33919E-005	0.00000E+000	-1.26000E-001	3.61891E-005	10	...........
	2475	49.52	-1.25111E-001	-4.30582E-005	0.00000E+000	-1.25000E-001	3.73568E-005	10	...........
	2476	49.54	-1.24079E-001	-4.29932E-005	0.00000E+000	-1.24000E-001	3.46045E-005	10	...........
	2477	49.56	-1.23042E-001	-4.27947E-005	0.00000E+000	-1.23000E-001	3.27697E-005	10	...........
	2478	49.58	-1.22131E-001	-4.21391E-005	0.00000E+000	-1.22000E-001	2.91834E-005	10	...........
	2479	49.6	-1.21088E-001	-4.16620E-005	0.00000E+000	-1.21000E-001	3.95252E-005	10	...........
	2480	49.62	-1.20117E-001	-4.13484E-005	0.00000E+000	-1.20000E-001	3.45211E-005	10	...........
	2481	49.64	-1.19111E-001	-4.10832E-005	0.00000E+000	-1.19000E-001	3.73568E-005	10	...........
	2482	49.66	-1.18086E-001	-4.06812E-005	0.00000E+000	-1.18000E-001	3.43543E-005	10	...........
	2483	49.68	-1.17121E-001	-4.01958E-005	0.00000E+000	-1.17000E-001	3.46045E-005	10	...........
	2484	49.7	-1.16117E-001	-3.97854E-005	0.00000E+000	-1.16000E-001	3.04344E-005	10	...........
	2485	49.72	-1.15106E-001	-3.95652E-005	0.00000E+000	-1.15000E-001	2.89332E-005	10	...........
	2486	49.74	-1.14222E-001	-3.95368E-005	0.00000E+000	-1.14000E-001	3.97754E-005	10	...........
	2487	49.76	-1.13123E-001	-3.93517E-005	0.00000E+000	-1.13000E-001	4.82824E-005	10	...........
	2488	49.78	-1.12150E-001	-3.90247E-005	0.00000E+000	-1.12000E-001	3.61057E-005	10	...........
	2489	49.8	-1.11091E-001	-3.86711E-005	0.00000E+000	-1.11000E-001	3.71066E-005	10	...........
	2490	49.82	-1.10089E-001	-3.84809E-005	0.00000E+000	-1.10000E-001	3.52717E-005	10	...........
	2491	49.84	-1.09133E-001	-3.82874E-005	0.00000E+000	-1.09000E-001	4.30281E-005	10	...........
	2492	49.86	-1.08097E-001	-3.80956E-005	0.00000E+000	-1.08000E-001	3.46045E-005	10	...........
	2493	49.88	-1.06941E-001	-3.78304E-005	0.00000E+000	-1.07000E-001	2.95170E-005	10	...........
	2494	49.9	-1.06158E-001	-3.76285E-005	0.00000E+000	-1.06000E-001	3.05178E-005	10	...........
	2495	49.92	-1.05072E-001	-3.71314E-005	0.00000E+000	-1.05000E-001	3.89414E-005	10	...........
	2496	49.94	-1.04128E-001	-3.71064E-005	0.00000E+000	-1.04000E-001	2.56805E-005	10	...........
	2497	49.96	-1.03093E-001	-3.70063E-005	0.00000E+000	-1.03000E-001	2.55971E-005	10	...........
	2498	49.98	-1.02045E-001	-3.63858E-005	0.00000E+000	-1.02000E-001	3.40207E-005	10	...........
	2499	50	-1.01150E-001	-3.58770E-005	0.00000E+000	-1.01000E-001	4.03592E-005	10	...........
	2500	50.02	-1.00107E-001	-3.54383E-005	0.00000E+000	-1.00000E-001	3.56887E-005	10	...........
	2501	50.04	-9.90541E-002	-3.51597E-005	0.00000E+000	-9.90000E-002	3.88580E-005	10	...........
	2502	50.06	-9.81689E-002	-3.49095E-005	0.00000E+000	-9.80000E-002	3.53551E-005	10	...........
	2503	50.08	-9.71088E-002	-3.47177E-005	0.00000E+000	-9.70000E-002	2.88498E-005	10	...........
	2504	50.1	-9.61373E-002	-3.43757E-005	0.00000E+000	-9.60000E-002	4.53633E-005	10	...........
	2505	50.12	-9.51290E-002	-3.37985E-005	0.00000E+000	-9.50000E-002	3.84410E-005	10	...........
	2506	50.14	-9.40909E-002	-3.36267E-005	0.00000E+000	-9.40000E-002	4.85326E-005	10	...........
	2507	50.16	-9.31367E-002	-3.31713E-005	0.00000E+000	-9.30000E-002	4.72816E-005	10	...........
	2508	50.18	-9.21264E-002	-3.28043E-005	0.00000E+000	-9.20000E-002	3.64394E-005	10	...........
	2509	50.2	-9.11110E-002	-3.24123E-005	0.00000E+000	-9.10000E-002	3.84410E-005	10	...........
	2510	50.22	-9.01389E-002	-3.21137E-005	0.00000E+000	-9.00000E-002	4.34451E-005	10	...........
	2511	50.24	-8.91335E-002	-3.21271E-005	0.00000E+000	-8.90000E-002	4.11932E-005	10	...........
	2512	50.26	-8.80782E-002	-3.17017E-005	0.00000E+000	-8.80000E-002	3.61891E-005	10	...........
	2513	50.28	-8.71216E-002	-3.11829E-005	0.00000E+000	-8.70000E-002	3.51049E-005	10	...........
	2514	50.3	-8.60306E-002	-3.08910E-005	0.00000E+000	-8.60000E-002	3.71900E-005	10	...........
	2515	50.32	-8.51212E-002	-3.05390E-005	0.00000E+000	-8.50000E-002	4.46127E-005	10	...........
	2516	50.34	-8.60136E-002	-3.09594E-005	0.00000E+000	-8.60000E-002	4.10264E-005	10	...........
	2517	50.36	-8.71013E-002	-3.13581E-005	0.00000E+000	-8.70000E-002	4.09430E-005	10	...........
	2518	50.38	-8.80490E-002	-3.16617E-005	0.00000E+000	-8.80000E-002	3.63559E-005	10	...........
	2519	50.4	-8.91097E-002	-3.19552E-005	0.00000E+000	-8.90000E-002	4.47795E-005	10	...........
	2520	50.42	-9.01232E-002	-3.19969E-005	0.00000E+000	-9.00000E-002	3.84410E-005	10	...........
	2521	50.44	-9.10878E-002	-3.25758E-005	0.00000E+000	-9.10000E-002	3.26863E-005	10	...........
	2522	50.46	-9.21024E-002	-3.30495E-005	0.00000E+000	-9.20000E-002	3.51049E-005	10	...........
	2523	50.48	-9.31157E-002	-3.34499E-005	0.00000E+000	-9.30000E-002	4.39455E-005	10	...........
	2524	50.5	-9.40702E-002	-3.35366E-005	0.00000E+000	-9.40000E-002	4.50297E-005	10	...........
	2525	50.52	-9.51034E-002	-3.37418E-005	0.00000E+000	-9.50000E-002	4.35285E-005	10	...........
	2526	50.54	-9.61117E-002	-3.43090E-005	0.00000E+000	-9.60000E-002	3.97754E-005	10	...........
	2527	50.56	-9.70855E-002	-3.42906E-005	0.00000E+000	-9.70000E-002	4.06928E-005	10	...........
	2528	50.58	-9.81417E-002	-3.47110E-005	0.00000E+000	-9.80000E-002	4.00256E-005	10	...........
	2529	50.6	-9.90091E-002	-3.49812E-005	0.00000E+000	-9.90000E-002	4.18604E-005	10	...........
	2530	50.62	-1.00089E-001	-3.53582E-005	0.00000E+000	-1.00000E-001	4.08596E-005	10	...........
	2531	50.64	-1.01134E-001	-3.57469E-005	0.00000E+000	-1.01000E-001	4.47795E-005	10	...........
	2532	50.66	-1.02030E-001	-3.63174E-005	0.00000E+000	-1.02000E-001	4.46961E-005	10	...........
	2533	50.68	-1.03067E-001	-3.64508E-005	0.00000E+000	-1.03000E-001	4.11932E-005	10	...........
	2534	50.7	-1.04109E-001	-3.68478E-005	0.00000E+000	-1.04000E-001	3.30199E-005	10	...........
	2535	50.72	-1.05052E-001	-3.68578E-005	0.00000E+000	-1.05000E-001	4.83658E-005	10	...........
	2536	50.74	-1.06142E-001	-3.73349E-005	0.00000E+000	-1.06000E-001	3.71900E-005	10	...........
	2537	50.76	-1.06929E-001	-3.77186E-005	0.00000E+000	-1.07000E-001	3.94418E-005	10	...........
	2538	50.78	-1.06157E-001	-3.75334E-005	0.00000E+000	-1.06000E-001	4.61139E-005	10	...........
	2539	50.8	-1.05067E-001	-3.69579E-005	0.00000E+000	-1.05000E-001	5.13682E-005	10	...........
	2540	50.82	-1.04124E-001	-3.66076E-005	0.00000E+000	-1.04000E-001	3.86078E-005	10	...........
	2541	50.84	-1.03087E-001	-3.61739E-005	0.00000E+000	-1.03000E-001	4.63641E-005	10	...........
	2542	50.86	-1.02050E-001	-3.59821E-005	0.00000E+000	-1.02000E-001	4.66143E-005	10	...........
	2543	50.88	-1.01143E-001	-3.53932E-005	0.00000E+000	-1.01000E-001	4.81156E-005	10	...........
	2544	50.9	-1.00113E-001	-3.50229E-005	0.00000E+000	-1.00000E-001	4.09430E-005	10	...........
	2545	50.92	-9.90251E-002	-3.49428E-005	0.00000E+000	-9.90000E-002	4.76986E-005	10	...........
	2546	50.94	-9.81637E-002	-3.46960E-005	0.00000E+000	-9.80000E-002	4.42791E-005	10	...........
	2547	50.96	-9.71124E-002	-3.43156E-005	0.00000E+000	-9.70000E-002	4.49463E-005	10	...........
	2548	50.98	-9.61367E-002	-3.43557E-005	0.00000E+000	-9.60000E-002	4.05260E-005	10	...........
	2549	51	-9.51295E-002	-3.38085E-005	0.00000E+000	-9.50000E-002	4.22775E-005	10	...........
	2550	51.02	-9.40930E-002	-3.37001E-005	0.00000E+000	-9.40000E-002	4.67811E-005	10	...........
	2551	51.04	-9.31379E-002	-3.33531E-005	0.00000E+000	-9.30000E-002	4.95334E-005	10	...........