File: 20190222 HUPD/CV_test_4.DTA
EXPLAIN
TAG	CV
TITLE	LABEL	CV	Test &Identifier
DATE	LABEL	2/22/2019	Date
TIME	LABEL	11:07:45	Time
NOTES	NOTES	2	&Notes...
	0.5 M H2SO4
	Pt-wire CE
PSTAT	PSTAT	REF600-16093	Potentiostat
VINIT	POTEN	0.00000E+000	T	Initial &E (V)
VLIMIT1	POTEN	1.00000E+000	F	Scan Limit &1 (V)
VLIMIT2	POTEN	-7.00000E-001	F	Scan Limit &2 (V)
VFINAL	POTEN	0.00000E+000	T	Final &E (V)
SCANRATE	QUANT	2.00000E+002	&Scan Rate (mV/s)
STEPSIZE	QUANT	1.00000E+001	St&ep Size (mV)
CYCLES	IQUANT	20	C&ycles (#)
IMODE	SELECTOR	1	I/E Range &Mode
IRANGE	QUANT	1.00000E+001	&Max Current (mA)
AREA	QUANT	1.00000E+000	Electrode &Area (cm^2)
ELECTRODETYPE	SELECTOR	0	Electrode Type
STRIPPING	TOGGLE	F	Used for Stripping
POLARITY	TOGGLE	F	Signal Polarity
CONDIT	TWOPARAM	F	1.50000E+001	0.00000E+000	Conditionin&g	Time(s)	E(V)
DELAY	TWOPARAM	T	5.00000E+000	0.00000E+000	Init. De&lay	Time(s)	Stab.(mV/s)
EQDELAY	QUANT	5.00000E+000	Equil. &Time (s)
IRCOMP	SELECTOR	0	IRCom&p
PFCOR	QUANT	0.00000E+000	PF Corr. (ohm)
SAMPLINGMODE	SELECTOR	2	Sampling &Mode
OCVCURVE	TABLE	20
	Pt	T	Vf	Vm	Ach	Over
	#	s	V vs. Ref.	V	V	bits
	0	0.25	-3.83284E-001	-3.83284E-001	5.03265E-005	...........
	1	0.5	-3.83280E-001	-3.83057E-001	5.60265E-005	...........
	2	0.75	-3.83253E-001	-3.82856E-001	5.88264E-005	...........
	3	1	-3.83178E-001	-3.82595E-001	4.70933E-005	...........
	4	1.25	-3.83040E-001	-3.82317E-001	4.69266E-005	...........
	5	1.5	-3.82846E-001	-3.82216E-001	5.22932E-005	...........
	6	1.75	-3.82626E-001	-3.82008E-001	5.20599E-005	...........
	7	2	-3.82408E-001	-3.81783E-001	4.84599E-005	...........
	8	2.25	-3.82205E-001	-3.81650E-001	5.33932E-005	...........
	9	2.5	-3.82011E-001	-3.81369E-001	5.71598E-005	...........
	10	2.75	-3.81817E-001	-3.81159E-001	4.93266E-005	...........
	11	3	-3.81611E-001	-3.80800E-001	4.82932E-005	...........
	12	3.25	-3.81385E-001	-3.80680E-001	5.16265E-005	...........
	13	3.5	-3.81145E-001	-3.80491E-001	6.39263E-005	...........
	14	3.75	-3.80910E-001	-3.80300E-001	4.95932E-005	...........
	15	4	-3.80696E-001	-3.80107E-001	5.57931E-005	...........
	16	4.25	-3.80500E-001	-3.79958E-001	5.18599E-005	...........
	17	4.5	-3.80314E-001	-3.79731E-001	5.48931E-005	...........
	18	4.75	-3.80131E-001	-3.79550E-001	4.74599E-005	...........
	19	5	-3.79944E-001	-3.79252E-001	5.15599E-005	...........
EOC	QUANT	-0.3799435	Open Circuit (V)
PSTATMODEL	IQUANT	4	Pstat Model
PSTATSECTION	LABEL	REF600-16093	Pstat Section
PSTATSERIALNO	LABEL	16093	Pstat Serial Number
CTRLMODE	IQUANT	1	Control Mode
IESTAB	IQUANT	2	I/E Stability
CASPEED	IQUANT	2	Control Amp Speed
CONVENTION	IQUANT	1	Current Convention
ICHRANGE	IQUANT	2	Ich Range
ICHRANGEMODE	TOGGLE	F	Ich Auto Range
ICHOFFSETENABLE	TOGGLE	F	Ich Offset Enable
ICHOFFSET	QUANT	0	Ich Offset (V)
ICHFILTER	IQUANT	2	Ich Filter
VCHRANGE	IQUANT	2	Vch Range
VCHRANGEMODE	TOGGLE	F	Vch Auto Range
VCHOFFSETENABLE	TOGGLE	F	Vch Offset Enable
VCHOFFSET	QUANT	0	Vch Offset (V)
VCHFILTER	IQUANT	2	Vch Filter
ACHRANGE	IQUANT	2	Ach Range
ACHOFFSETENABLE	TOGGLE	F	Ach Offset Enable
ACHOFFSET	QUANT	0	Ach Offset (V)
ACHFILTER	IQUANT	1	Ach Filter
IERANGELOWERLIMIT	IQUANT	1	I/E Range Lower Limit
IERANGEMODE	TOGGLE	F	I/E AutoRange
IERANGE	IQUANT	10	I/E Range
POSFEEDENABLE	TOGGLE	F	Positive Feedback IR Comp
POSFEEDRESISTANCE	QUANT	0	Positive Feedback Resistance (ohm)
ACHSELECT	IQUANT	0	Ach Select
CABLEID	IQUANT	14	Cable ID
DCCALDATE	LABEL	2/18/2019	DC Calibration Date
ACCALDATE	LABEL	2/18/2019	AC Calibration Date
THERMOSELECT	IQUANT	1	Thermo Select
FRAMEWORKVERSION	QUANT	6.33	Framework Version
INSTRUMENTVERSION	LABEL	3.50	Instrument Version
CURVE1	TABLE
	Pt	T	Vf	Im	Vu	Sig	Ach	IERange	Over
	#	s	V vs. Ref.	A	V	V	V	#	bits
	0	0.05	-3.79498E-001	-3.44950E-006	0.00000E+000	-3.79950E-001	8.48975E-005	10	...........
	1	0.1	-3.69474E-001	9.97581E-005	0.00000E+000	-3.69950E-001	9.15663E-005	10	...........
	2	0.15	-3.59506E-001	9.38279E-005	0.00000E+000	-3.59950E-001	8.34971E-005	10	...........
	3	0.2	-3.49577E-001	8.76703E-005	0.00000E+000	-3.49950E-001	9.25666E-005	10	...........
	4	0.25	-3.39477E-001	8.17247E-005	0.00000E+000	-3.39950E-001	8.70982E-005	10	...........
	5	0.3	-3.29522E-001	7.78140E-005	0.00000E+000	-3.29950E-001	9.41005E-005	10	...........
	6	0.35	-3.19584E-001	7.49556E-005	0.00000E+000	-3.19950E-001	8.86321E-005	10	...........
	7	0.4	-3.09609E-001	7.45521E-005	0.00000E+000	-3.09950E-001	8.92989E-005	10	...........
	8	0.45	-2.99589E-001	7.47975E-005	0.00000E+000	-2.99950E-001	8.66981E-005	10	...........
	9	0.5	-2.89528E-001	7.69230E-005	0.00000E+000	-2.89950E-001	8.89321E-005	10	...........
	10	0.55	-2.79580E-001	7.96713E-005	0.00000E+000	-2.79950E-001	8.42973E-005	10	...........
	11	0.6	-2.69645E-001	8.41636E-005	0.00000E+000	-2.69950E-001	9.12329E-005	10	...........
	12	0.65	-2.59620E-001	8.96543E-005	0.00000E+000	-2.59950E-001	8.59312E-005	10	...........
	13	0.7	-2.49565E-001	9.67483E-005	0.00000E+000	-2.49950E-001	9.03659E-005	10	...........
	14	0.75	-2.39585E-001	1.04950E-004	0.00000E+000	-2.39950E-001	8.57311E-005	10	...........
	15	0.8	-2.29693E-001	1.15085E-004	0.00000E+000	-2.29950E-001	8.68648E-005	10	...........
	16	0.85	-2.19678E-001	1.25642E-004	0.00000E+000	-2.19950E-001	8.46641E-005	10	...........
	17	0.9	-2.09551E-001	1.37838E-004	0.00000E+000	-2.09950E-001	9.13663E-005	10	...........
	18	0.95	-1.99658E-001	1.51349E-004	0.00000E+000	-1.99950E-001	9.36670E-005	10	...........
	19	1	-1.89748E-001	1.66295E-004	0.00000E+000	-1.89950E-001	9.24333E-005	10	...........
	20	1.05	-1.79655E-001	1.81730E-004	0.00000E+000	-1.79950E-001	9.35003E-005	10	...........
	21	1.1	-1.69610E-001	1.98942E-004	0.00000E+000	-1.69950E-001	8.82653E-005	10	...........
	22	1.15	-1.59646E-001	2.16461E-004	0.00000E+000	-1.59950E-001	8.83320E-005	10	...........
	23	1.2	-1.49739E-001	2.34554E-004	0.00000E+000	-1.49950E-001	9.08994E-005	10	...........
	24	1.25	-1.39732E-001	2.51783E-004	0.00000E+000	-1.39950E-001	9.56343E-005	10	...........
	25	1.3	-1.29568E-001	2.70054E-004	0.00000E+000	-1.29950E-001	8.97324E-005	10	...........
	26	1.35	-1.19720E-001	2.86585E-004	0.00000E+000	-1.19950E-001	1.01303E-004	10	...........
	27	1.4	-1.09754E-001	3.02534E-004	0.00000E+000	-1.09950E-001	9.46673E-005	10	...........
	28	1.45	-9.97549E-002	3.16297E-004	0.00000E+000	-9.99500E-002	1.05571E-004	10	...........
	29	1.5	-8.97167E-002	3.29071E-004	0.00000E+000	-8.99500E-002	9.55009E-005	10	...........
	30	1.55	-7.97213E-002	3.39348E-004	0.00000E+000	-7.99500E-002	1.04670E-004	10	...........
	31	1.6	-6.97854E-002	3.48203E-004	0.00000E+000	-6.99500E-002	9.92021E-005	10	...........
	32	1.65	-5.97623E-002	3.53679E-004	0.00000E+000	-5.99500E-002	1.03303E-004	10	...........
	33	1.7	-4.96150E-002	3.57960E-004	0.00000E+000	-4.99500E-002	9.68013E-005	10	...........
	34	1.75	-3.97928E-002	3.59334E-004	0.00000E+000	-3.99500E-002	1.05904E-004	10	...........
	35	1.8	-2.97618E-002	3.59732E-004	0.00000E+000	-2.99500E-002	9.35670E-005	10	...........
	36	1.85	-1.98050E-002	3.58143E-004	0.00000E+000	-1.99500E-002	1.04204E-004	10	...........
	37	1.9	-9.62561E-003	3.56379E-004	0.00000E+000	-9.95000E-003	9.10995E-005	10	...........
	38	1.95	1.69802E-004	3.53104E-004	0.00000E+000	5.00083E-005	9.87019E-005	10	...........
	39	2	1.01446E-002	3.51173E-004	0.00000E+000	1.00500E-002	9.23332E-005	10	...........
	40	2.05	2.01205E-002	3.48309E-004	0.00000E+000	2.00500E-002	1.03770E-004	10	...........
	41	2.1	3.01729E-002	3.47657E-004	0.00000E+000	3.00500E-002	9.24333E-005	10	...........
	42	2.15	4.01690E-002	3.47841E-004	0.00000E+000	4.00500E-002	1.02336E-004	10	...........
	43	2.2	5.01276E-002	3.50122E-004	0.00000E+000	5.00500E-002	9.27000E-005	10	...........
	44	2.25	6.00945E-002	3.53553E-004	0.00000E+000	6.00500E-002	1.00302E-004	10	...........
	45	2.3	7.02426E-002	3.60403E-004	0.00000E+000	7.00500E-002	9.51341E-005	10	...........
	46	2.35	8.01110E-002	3.68413E-004	0.00000E+000	8.00500E-002	1.00669E-004	10	...........
	47	2.4	9.00688E-002	3.80037E-004	0.00000E+000	9.00500E-002	9.34336E-005	10	...........
	48	2.45	1.00047E-001	3.93062E-004	0.00000E+000	1.00050E-001	9.92021E-005	10	...........
	49	2.5	1.10073E-001	4.09620E-004	0.00000E+000	1.10050E-001	9.17664E-005	10	...........
	50	2.55	1.20089E-001	4.27553E-004	0.00000E+000	1.20050E-001	9.93355E-005	10	...........
	51	2.6	1.30058E-001	4.49161E-004	0.00000E+000	1.30050E-001	9.33335E-005	10	...........
	52	2.65	1.39983E-001	4.71279E-004	0.00000E+000	1.40050E-001	9.44673E-005	10	...........
	53	2.7	1.50037E-001	4.97524E-004	0.00000E+000	1.50050E-001	8.81319E-005	10	...........
	54	2.75	1.60062E-001	5.24417E-004	0.00000E+000	1.60050E-001	9.28334E-005	10	...........
	55	2.8	1.70051E-001	5.56418E-004	0.00000E+000	1.70050E-001	8.80652E-005	10	...........
	56	2.85	1.79919E-001	5.88122E-004	0.00000E+000	1.80050E-001	9.48340E-005	10	...........
	57	2.9	1.89965E-001	6.25044E-004	0.00000E+000	1.90050E-001	8.73650E-005	10	...........
	58	2.95	2.00052E-001	6.61818E-004	0.00000E+000	2.00050E-001	9.32669E-005	10	...........
	59	3	2.09992E-001	7.04411E-004	0.00000E+000	2.10050E-001	8.88988E-005	10	...........
	60	3.05	2.19845E-001	7.46222E-004	0.00000E+000	2.20050E-001	9.49341E-005	10	...........
	61	3.1	2.29986E-001	7.93793E-004	0.00000E+000	2.30050E-001	8.44974E-005	10	...........
	62	3.15	2.40023E-001	8.40751E-004	0.00000E+000	2.40050E-001	8.62980E-005	10	...........
	63	3.2	2.49980E-001	8.94010E-004	0.00000E+000	2.50050E-001	8.71983E-005	10	...........
	64	3.25	2.59862E-001	9.45149E-004	0.00000E+000	2.60050E-001	9.34002E-005	10	...........
	65	3.3	2.69963E-001	1.00243E-003	0.00000E+000	2.70050E-001	9.15663E-005	10	...........
	66	3.35	2.80035E-001	1.05664E-003	0.00000E+000	2.80050E-001	9.16663E-005	10	...........
	67	3.4	2.89910E-001	1.11565E-003	0.00000E+000	2.90050E-001	9.54676E-005	10	...........
	68	3.45	2.99842E-001	1.17068E-003	0.00000E+000	3.00050E-001	9.37337E-005	10	...........
	69	3.5	3.09867E-001	1.22883E-003	0.00000E+000	3.10050E-001	9.89020E-005	10	...........
	70	3.55	3.19942E-001	1.28109E-003	0.00000E+000	3.20050E-001	9.06660E-005	10	...........
	71	3.6	3.29923E-001	1.33559E-003	0.00000E+000	3.30050E-001	9.00658E-005	10	...........
	72	3.65	3.39835E-001	1.38318E-003	0.00000E+000	3.40050E-001	9.19665E-005	10	...........
	73	3.7	3.49864E-001	1.43223E-003	0.00000E+000	3.50050E-001	9.68013E-005	10	...........
	74	3.75	3.60020E-001	1.47401E-003	0.00000E+000	3.60050E-001	8.82653E-005	10	...........
	75	3.8	3.69846E-001	1.51681E-003	0.00000E+000	3.70050E-001	9.57343E-005	10	...........
	76	3.85	3.79836E-001	1.55208E-003	0.00000E+000	3.80050E-001	9.09995E-005	10	...........
	77	3.9	3.89820E-001	1.58846E-003	0.00000E+000	3.90050E-001	9.69013E-005	10	...........
	78	3.95	4.00009E-001	1.61703E-003	0.00000E+000	4.00050E-001	8.34971E-005	10	...........
	79	4	4.09836E-001	1.64525E-003	0.00000E+000	4.10050E-001	9.54009E-005	10	...........
	80	4.05	4.19806E-001	1.66475E-003	0.00000E+000	4.20050E-001	8.75317E-005	10	...........
	81	4.1	4.29829E-001	1.68411E-003	0.00000E+000	4.30050E-001	9.36003E-005	10	...........
	82	4.15	4.39899E-001	1.69616E-003	0.00000E+000	4.40050E-001	9.22332E-005	10	...........
	83	4.2	4.49823E-001	1.70878E-003	0.00000E+000	4.50050E-001	9.92354E-005	10	...........
	84	4.25	4.59800E-001	1.71533E-003	0.00000E+000	4.60050E-001	9.42005E-005	10	...........
	85	4.3	4.69763E-001	1.72410E-003	0.00000E+000	4.70050E-001	1.02503E-004	10	...........
	86	4.35	4.79959E-001	1.72797E-003	0.00000E+000	4.80050E-001	8.97324E-005	10	...........
	87	4.4	4.89785E-001	1.73615E-003	0.00000E+000	4.90050E-001	9.85685E-005	10	...........
	88	4.45	4.99752E-001	1.74060E-003	0.00000E+000	5.00050E-001	8.90989E-005	10	...........
	89	4.5	5.09772E-001	1.74967E-003	0.00000E+000	5.10050E-001	9.77683E-005	10	...........
	90	4.55	5.19771E-001	1.75735E-003	0.00000E+000	5.20050E-001	8.84987E-005	10	...........
	91	4.6	5.29768E-001	1.76789E-003	0.00000E+000	5.30050E-001	9.71348E-005	10	...........
	92	4.65	5.39732E-001	1.77702E-003	0.00000E+000	5.40050E-001	8.91989E-005	10	...........
	93	4.7	5.49662E-001	1.78982E-003	0.00000E+000	5.50050E-001	9.81017E-005	10	...........
	94	4.75	5.59781E-001	1.79975E-003	0.00000E+000	5.60050E-001	8.85320E-005	10	...........
	95	4.8	5.69721E-001	1.81333E-003	0.00000E+000	5.70050E-001	9.47006E-005	10	...........
	96	4.85	5.79727E-001	1.82437E-003	0.00000E+000	5.80050E-001	8.87654E-005	10	...........
	97	4.9	5.89615E-001	1.83798E-003	0.00000E+000	5.90050E-001	9.63678E-005	10	...........
	98	4.95	5.99651E-001	1.84897E-003	0.00000E+000	6.00050E-001	8.83320E-005	10	...........
	99	5	6.09704E-001	1.86280E-003	0.00000E+000	6.10050E-001	9.76349E-005	10	...........
	100	5.05	6.19653E-001	1.87265E-003	0.00000E+000	6.20050E-001	8.93323E-005	10	...........
	101	5.1	6.29498E-001	1.88498E-003	0.00000E+000	6.30050E-001	9.85019E-005	10	...........
	102	5.15	6.39660E-001	1.89264E-003	0.00000E+000	6.40050E-001	8.57645E-005	10	...........
	103	5.2	6.49652E-001	1.90253E-003	0.00000E+000	6.50050E-001	8.87988E-005	10	...........
	104	5.25	6.59638E-001	1.90814E-003	0.00000E+000	6.60050E-001	9.07661E-005	10	...........
	105	5.3	6.69535E-001	1.91514E-003	0.00000E+000	6.70050E-001	9.59677E-005	10	...........
	106	5.35	6.79697E-001	1.91781E-003	0.00000E+000	6.80050E-001	9.54342E-005	10	...........
	107	5.4	6.89654E-001	1.92220E-003	0.00000E+000	6.90050E-001	9.40004E-005	10	...........
	108	5.45	6.99591E-001	1.92225E-003	0.00000E+000	7.00050E-001	8.80652E-005	10	...........
	109	5.5	7.09471E-001	1.92384E-003	0.00000E+000	7.10050E-001	9.10328E-005	10	...........
	110	5.55	7.19538E-001	1.92160E-003	0.00000E+000	7.20050E-001	8.84987E-005	10	...........
	111	5.6	7.29615E-001	1.92124E-003	0.00000E+000	7.30050E-001	9.14996E-005	10	...........
	112	5.65	7.39590E-001	1.91779E-003	0.00000E+000	7.40050E-001	9.26333E-005	10	...........
	113	5.7	7.49484E-001	1.91698E-003	0.00000E+000	7.50050E-001	9.08327E-005	10	...........
	114	5.75	7.59515E-001	1.91345E-003	0.00000E+000	7.60050E-001	9.07994E-005	10	...........
	115	5.8	7.69630E-001	1.91291E-003	0.00000E+000	7.70050E-001	9.30334E-005	10	...........
	116	5.85	7.79506E-001	1.91033E-003	0.00000E+000	7.80050E-001	9.40004E-005	10	...........
	117	5.9	7.89448E-001	1.91155E-003	0.00000E+000	7.90050E-001	9.02993E-005	10	...........
	118	5.95	7.99480E-001	1.91171E-003	0.00000E+000	8.00050E-001	9.67013E-005	10	...........
	119	6	8.09622E-001	1.91623E-003	0.00000E+000	8.10050E-001	9.37003E-005	10	...........
	120	6.05	8.19537E-001	1.92043E-003	0.00000E+000	8.20050E-001	9.17330E-005	10	...........
	121	6.1	8.29474E-001	1.92957E-003	0.00000E+000	8.30050E-001	9.53342E-005	10	...........
	122	6.15	8.39558E-001	1.93998E-003	0.00000E+000	8.40050E-001	9.60011E-005	10	...........
	123	6.2	8.49616E-001	1.95740E-003	0.00000E+000	8.50050E-001	9.27667E-005	10	...........
	124	6.25	8.59502E-001	1.97782E-003	0.00000E+000	8.60050E-001	9.62011E-005	10	...........
	125	6.3	8.69437E-001	2.00653E-003	0.00000E+000	8.70050E-001	9.92021E-005	10	...........
	126	6.35	8.79453E-001	2.03980E-003	0.00000E+000	8.80050E-001	1.01836E-004	10	...........
	127	6.4	8.89624E-001	2.08445E-003	0.00000E+000	8.90050E-001	8.76651E-005	10	...........
	128	6.45	8.99483E-001	2.13655E-003	0.00000E+000	9.00050E-001	9.33669E-005	10	...........
	129	6.5	9.09416E-001	2.20349E-003	0.00000E+000	9.10050E-001	8.77651E-005	10	...........
	130	6.55	9.19468E-001	2.28035E-003	0.00000E+000	9.20050E-001	9.32669E-005	10	...........
	131	6.6	9.29534E-001	2.37477E-003	0.00000E+000	9.30050E-001	8.45308E-005	10	...........
	132	6.65	9.39466E-001	2.48439E-003	0.00000E+000	9.40050E-001	9.00992E-005	10	...........
	133	6.7	9.49420E-001	2.61593E-003	0.00000E+000	9.50050E-001	8.84653E-005	10	...........
	134	6.75	9.59376E-001	2.76603E-003	0.00000E+000	9.60050E-001	1.01469E-004	10	...........
	135	6.8	9.69572E-001	2.94251E-003	0.00000E+000	9.70050E-001	8.90322E-005	10	...........
	136	6.85	9.79421E-001	3.14350E-003	0.00000E+000	9.80050E-001	9.56009E-005	10	...........
	137	6.9	9.89414E-001	3.37513E-003	0.00000E+000	9.90050E-001	8.52310E-005	10	...........
	138	6.95	9.99348E-001	3.63377E-003	0.00000E+000	1.00005E+000	9.84018E-005	10	...........
	139	7	9.89497E-001	2.71494E-003	0.00000E+000	9.90050E-001	9.01992E-005	10	...........
	140	7.05	9.79510E-001	2.07650E-003	0.00000E+000	9.80050E-001	9.93021E-005	10	...........
	141	7.1	9.69675E-001	1.60065E-003	0.00000E+000	9.70050E-001	8.78318E-005	10	...........
	142	7.15	9.59477E-001	1.23777E-003	0.00000E+000	9.60050E-001	9.51675E-005	10	...........
	143	7.2	9.49508E-001	9.62000E-004	0.00000E+000	9.50050E-001	8.91656E-005	10	...........
	144	7.25	9.39557E-001	7.47716E-004	0.00000E+000	9.40050E-001	9.06994E-005	10	...........
	145	7.3	9.29665E-001	5.84410E-004	0.00000E+000	9.30050E-001	8.60979E-005	10	...........
	146	7.35	9.19557E-001	4.57080E-004	0.00000E+000	9.20050E-001	9.24333E-005	10	...........
	147	7.4	9.09486E-001	3.59306E-004	0.00000E+000	9.10050E-001	8.83653E-005	10	...........
	148	7.45	8.99584E-001	2.81487E-004	0.00000E+000	9.00050E-001	9.15663E-005	10	...........
	149	7.5	8.89710E-001	2.22067E-004	0.00000E+000	8.90050E-001	8.81986E-005	10	...........
	150	7.55	8.79586E-001	1.73720E-004	0.00000E+000	8.80050E-001	9.37003E-005	10	...........
	151	7.6	8.69520E-001	1.35803E-004	0.00000E+000	8.70050E-001	8.78985E-005	10	...........
	152	7.65	8.59604E-001	1.04111E-004	0.00000E+000	8.60050E-001	9.27000E-005	10	...........
	153	7.7	8.49705E-001	7.98334E-005	0.00000E+000	8.50050E-001	9.15330E-005	10	...........
	154	7.75	8.39770E-001	5.88269E-005	0.00000E+000	8.40050E-001	9.16997E-005	10	...........
	155	7.8	8.29579E-001	4.32185E-005	0.00000E+000	8.30050E-001	9.57677E-005	10	...........
	156	7.85	8.19624E-001	2.83950E-005	0.00000E+000	8.20050E-001	9.23999E-005	10	...........
	157	7.9	8.09711E-001	1.78304E-005	0.00000E+000	8.10050E-001	9.00658E-005	10	...........
	158	7.95	7.99585E-001	7.15976E-006	0.00000E+000	8.00050E-001	9.50674E-005	10	...........
	159	8	7.89545E-001	-3.64358E-007	0.00000E+000	7.90050E-001	9.31001E-005	10	...........
	160	8.05	7.79617E-001	-8.67877E-006	0.00000E+000	7.80050E-001	9.40004E-005	10	...........
	161	8.1	7.69713E-001	-1.44109E-005	0.00000E+000	7.70050E-001	9.39337E-005	10	...........
	162	8.15	7.59621E-001	-2.10227E-005	0.00000E+000	7.60050E-001	9.75682E-005	10	...........
	163	8.2	7.49594E-001	-2.49355E-005	0.00000E+000	7.50050E-001	9.50008E-005	10	...........
	164	8.25	7.39681E-001	-3.08743E-005	0.00000E+000	7.40050E-001	9.51008E-005	10	...........
	165	8.3	7.29708E-001	-3.41402E-005	0.00000E+000	7.30050E-001	8.99992E-005	10	...........
	166	8.35	7.19641E-001	-3.92855E-005	0.00000E+000	7.20050E-001	9.05327E-005	10	...........
	167	8.4	7.09561E-001	-4.25580E-005	0.00000E+000	7.10050E-001	9.19331E-005	10	...........
	168	8.45	6.99686E-001	-4.74125E-005	0.00000E+000	7.00050E-001	8.72649E-005	10	...........
	169	8.5	6.89736E-001	-5.01862E-005	0.00000E+000	6.90050E-001	9.14329E-005	10	...........
	170	8.55	6.79826E-001	-5.52260E-005	0.00000E+000	6.80050E-001	9.04660E-005	10	...........
	171	8.6	6.69651E-001	-5.77823E-005	0.00000E+000	6.70050E-001	9.25666E-005	10	...........
	172	8.65	6.59715E-001	-6.23060E-005	0.00000E+000	6.60050E-001	9.08994E-005	10	...........
	173	8.7	6.49721E-001	-6.50083E-005	0.00000E+000	6.50050E-001	9.83351E-005	10	...........
	174	8.75	6.39731E-001	-6.96700E-005	0.00000E+000	6.40050E-001	8.81319E-005	10	...........
	175	8.8	6.29585E-001	-7.19235E-005	0.00000E+000	6.30050E-001	9.19331E-005	10	...........
	176	8.85	6.19727E-001	-7.64972E-005	0.00000E+000	6.20050E-001	8.76317E-005	10	...........
	177	8.9	6.09792E-001	-7.97518E-005	0.00000E+000	6.10050E-001	9.37670E-005	10	...........
	178	8.95	5.99738E-001	-8.43875E-005	0.00000E+000	6.00050E-001	8.59312E-005	10	...........
	179	9	5.89720E-001	-8.73139E-005	0.00000E+000	5.90050E-001	9.63012E-005	10	...........
	180	9.05	5.79822E-001	-9.21317E-005	0.00000E+000	5.80050E-001	8.90655E-005	10	...........
	181	9.1	5.69803E-001	-9.51588E-005	0.00000E+000	5.70050E-001	9.74015E-005	10	...........
	182	9.15	5.59860E-001	-1.00484E-004	0.00000E+000	5.60050E-001	9.47673E-005	10	...........
	183	9.2	5.49751E-001	-1.03525E-004	0.00000E+000	5.50050E-001	1.00402E-004	10	...........
	184	9.25	5.39818E-001	-1.08975E-004	0.00000E+000	5.40050E-001	9.51675E-005	10	...........
	185	9.3	5.29848E-001	-1.12313E-004	0.00000E+000	5.30050E-001	9.47006E-005	10	...........
	186	9.35	5.19826E-001	-1.18057E-004	0.00000E+000	5.20050E-001	9.28667E-005	10	...........
	187	9.4	5.09839E-001	-1.21929E-004	0.00000E+000	5.10050E-001	9.92354E-005	10	...........
	188	9.45	4.99820E-001	-1.28683E-004	0.00000E+000	5.00050E-001	9.34669E-005	10	...........
	189	9.5	4.89871E-001	-1.32759E-004	0.00000E+000	4.90050E-001	1.00703E-004	10	...........
	190	9.55	4.80009E-001	-1.39361E-004	0.00000E+000	4.80050E-001	9.14663E-005	10	...........
	191	9.6	4.69823E-001	-1.43876E-004	0.00000E+000	4.70050E-001	9.97689E-005	10	...........
	192	9.65	4.59884E-001	-1.51398E-004	0.00000E+000	4.60050E-001	9.07994E-005	10	...........
	193	9.7	4.49894E-001	-1.56453E-004	0.00000E+000	4.50050E-001	9.76683E-005	10	...........
	194	9.75	4.39945E-001	-1.64399E-004	0.00000E+000	4.40050E-001	9.14663E-005	10	...........
	195	9.8	4.29895E-001	-1.70539E-004	0.00000E+000	4.30050E-001	9.83018E-005	10	...........
	196	9.85	4.19878E-001	-1.79329E-004	0.00000E+000	4.20050E-001	9.32335E-005	10	...........
	197	9.9	4.09914E-001	-1.86167E-004	0.00000E+000	4.10050E-001	9.81684E-005	10	...........
	198	9.95	4.00067E-001	-1.96127E-004	0.00000E+000	4.00050E-001	8.82319E-005	10	...........
	199	10	3.89883E-001	-2.03513E-004	0.00000E+000	3.90050E-001	9.36336E-005	10	...........
	200	10.05	3.79923E-001	-2.14402E-004	0.00000E+000	3.80050E-001	9.25666E-005	10	...........
	201	10.1	3.69935E-001	-2.23384E-004	0.00000E+000	3.70050E-001	9.54676E-005	10	...........
	202	10.15	3.60104E-001	-2.35974E-004	0.00000E+000	3.60050E-001	9.13663E-005	10	...........
	203	10.2	3.49928E-001	-2.46466E-004	0.00000E+000	3.50050E-001	1.01203E-004	10	...........
	204	10.25	3.39902E-001	-2.60499E-004	0.00000E+000	3.40050E-001	9.42338E-005	10	...........
	205	10.3	3.30016E-001	-2.72777E-004	0.00000E+000	3.30050E-001	9.48007E-005	10	...........
	206	10.35	3.20021E-001	-2.88723E-004	0.00000E+000	3.20050E-001	9.17330E-005	10	...........
	207	10.4	3.09939E-001	-3.02952E-004	0.00000E+000	3.10050E-001	9.71348E-005	10	...........
	208	10.45	2.99929E-001	-3.21203E-004	0.00000E+000	3.00050E-001	9.19331E-005	10	...........
	209	10.5	2.89997E-001	-3.38214E-004	0.00000E+000	2.90050E-001	8.96991E-005	10	...........
	210	10.55	2.80107E-001	-3.59203E-004	0.00000E+000	2.80050E-001	9.05660E-005	10	...........
	211	10.6	2.70037E-001	-3.79444E-004	0.00000E+000	2.70050E-001	9.65679E-005	10	...........
	212	10.65	2.59951E-001	-4.03354E-004	0.00000E+000	2.60050E-001	9.24999E-005	10	...........
	213	10.7	2.50043E-001	-4.27129E-004	0.00000E+000	2.50050E-001	8.67981E-005	10	...........
	214	10.75	2.40060E-001	-4.55619E-004	0.00000E+000	2.40050E-001	9.19331E-005	10	...........
	215	10.8	2.30030E-001	-4.84210E-004	0.00000E+000	2.30050E-001	8.51976E-005	10	...........
	216	10.85	2.19944E-001	-5.17960E-004	0.00000E+000	2.20050E-001	9.15330E-005	10	...........
	217	10.9	2.10034E-001	-5.51776E-004	0.00000E+000	2.10050E-001	8.39306E-005	10	...........
	218	10.95	2.00121E-001	-5.92078E-004	0.00000E+000	2.00050E-001	8.85987E-005	10	...........
	219	11	1.90035E-001	-6.33018E-004	0.00000E+000	1.90050E-001	8.12630E-005	10	...........
	220	11.05	1.79983E-001	-6.81107E-004	0.00000E+000	1.80050E-001	8.77318E-005	10	...........
	221	11.1	1.70106E-001	-7.31327E-004	0.00000E+000	1.70050E-001	8.43974E-005	10	...........
	222	11.15	1.60127E-001	-7.89870E-004	0.00000E+000	1.60050E-001	9.04660E-005	10	...........
	223	11.2	1.50113E-001	-8.51568E-004	0.00000E+000	1.50050E-001	8.46641E-005	10	...........
	224	11.25	1.40087E-001	-9.22489E-004	0.00000E+000	1.40050E-001	8.89655E-005	10	...........
	225	11.3	1.30150E-001	-9.98298E-004	0.00000E+000	1.30050E-001	8.29969E-005	10	...........
	226	11.35	1.20186E-001	-1.08624E-003	0.00000E+000	1.20050E-001	9.65346E-005	10	...........
	227	11.4	1.10143E-001	-1.18101E-003	0.00000E+000	1.10050E-001	8.99992E-005	10	...........
	228	11.45	1.00167E-001	-1.29016E-003	0.00000E+000	1.00050E-001	9.70014E-005	10	...........
	229	11.5	9.01716E-002	-1.40895E-003	0.00000E+000	9.00500E-002	8.85320E-005	10	...........
	230	11.55	8.02043E-002	-1.54339E-003	0.00000E+000	8.00500E-002	1.00703E-004	10	...........
	231	11.6	7.03202E-002	-1.68814E-003	0.00000E+000	7.00500E-002	8.93990E-005	10	...........
	232	11.65	6.01825E-002	-1.84944E-003	0.00000E+000	6.00500E-002	9.55009E-005	10	...........
	233	11.7	5.02370E-002	-2.01835E-003	0.00000E+000	5.00500E-002	8.85987E-005	10	...........
	234	11.75	4.02613E-002	-2.20045E-003	0.00000E+000	4.00500E-002	1.03370E-004	10	...........
	235	11.8	3.02658E-002	-2.38364E-003	0.00000E+000	3.00500E-002	9.33669E-005	10	...........
	236	11.85	2.02398E-002	-2.56957E-003	0.00000E+000	2.00500E-002	9.76683E-005	10	...........
	237	11.9	1.02169E-002	-2.74257E-003	0.00000E+000	1.00500E-002	8.65647E-005	10	...........
	238	11.95	2.56330E-004	-2.90110E-003	0.00000E+000	5.00083E-005	9.83351E-005	10	...........
	239	12	-9.57276E-003	-3.02549E-003	0.00000E+000	-9.95000E-003	9.00325E-005	10	...........
	240	12.05	-1.97246E-002	-3.11174E-003	0.00000E+000	-1.99500E-002	9.81684E-005	10	...........
	241	12.1	-2.96798E-002	-3.14342E-003	0.00000E+000	-2.99500E-002	9.23332E-005	10	...........
	242	12.15	-3.97087E-002	-3.11795E-003	0.00000E+000	-3.99500E-002	9.48007E-005	10	...........
	243	12.2	-4.95494E-002	-3.02596E-003	0.00000E+000	-4.99500E-002	9.07661E-005	10	...........
	244	12.25	-5.96981E-002	-2.87625E-003	0.00000E+000	-5.99500E-002	1.01670E-004	10	...........
	245	12.3	-6.97137E-002	-2.67186E-003	0.00000E+000	-6.99500E-002	9.53675E-005	10	...........
	246	12.35	-7.96363E-002	-2.43334E-003	0.00000E+000	-7.99500E-002	9.91020E-005	10	...........
	247	12.4	-8.96539E-002	-2.17273E-003	0.00000E+000	-8.99500E-002	9.97022E-005	10	...........
	248	12.45	-9.97069E-002	-1.91272E-003	0.00000E+000	-9.99500E-002	1.03737E-004	10	...........
	249	12.5	-1.09682E-001	-1.66117E-003	0.00000E+000	-1.09950E-001	1.00269E-004	10	...........
	250	12.55	-1.19664E-001	-1.43221E-003	0.00000E+000	-1.19950E-001	1.01303E-004	10	...........
	251	12.6	-1.29547E-001	-1.22525E-003	0.00000E+000	-1.29950E-001	9.72015E-005	10	...........
	252	12.65	-1.39709E-001	-1.04547E-003	0.00000E+000	-1.39950E-001	1.01469E-004	10	...........
	253	12.7	-1.49659E-001	-8.86953E-004	0.00000E+000	-1.49950E-001	9.25666E-005	10	...........
	254	12.75	-1.59634E-001	-7.52732E-004	0.00000E+000	-1.59950E-001	9.46673E-005	10	...........
	255	12.8	-1.69607E-001	-6.35785E-004	0.00000E+000	-1.69950E-001	9.67346E-005	10	...........
	256	12.85	-1.79635E-001	-5.38806E-004	0.00000E+000	-1.79950E-001	9.22999E-005	10	...........
	257	12.9	-1.89668E-001	-4.55206E-004	0.00000E+000	-1.89950E-001	9.34336E-005	10	...........
	258	12.95	-1.99594E-001	-3.88426E-004	0.00000E+000	-1.99950E-001	9.10662E-005	10	...........
	259	13	-2.09480E-001	-3.32021E-004	0.00000E+000	-2.09950E-001	9.24333E-005	10	...........
	260	13.05	-2.19594E-001	-2.89001E-004	0.00000E+000	-2.19950E-001	9.02993E-005	10	...........
	261	13.1	-2.29623E-001	-2.53280E-004	0.00000E+000	-2.29950E-001	9.86019E-005	10	...........
	262	13.15	-2.39507E-001	-2.27691E-004	0.00000E+000	-2.39950E-001	9.60344E-005	10	...........
	263	13.2	-2.49505E-001	-2.06345E-004	0.00000E+000	-2.49950E-001	9.61678E-005	10	...........
	264	13.25	-2.59553E-001	-1.93124E-004	0.00000E+000	-2.59950E-001	9.87019E-005	10	...........
	265	13.3	-2.69558E-001	-1.81127E-004	0.00000E+000	-2.69950E-001	9.66346E-005	10	...........
	266	13.35	-2.79496E-001	-1.75436E-004	0.00000E+000	-2.79950E-001	9.05660E-005	10	...........
	267	13.4	-2.89464E-001	-1.69963E-004	0.00000E+000	-2.89950E-001	9.71348E-005	10	...........
	268	13.45	-2.99526E-001	-1.70257E-004	0.00000E+000	-2.99950E-001	9.02326E-005	10	...........
	269	13.5	-3.09506E-001	-1.70636E-004	0.00000E+000	-3.09950E-001	9.89687E-005	10	...........
	270	13.55	-3.19513E-001	-1.77073E-004	0.00000E+000	-3.19950E-001	9.28334E-005	10	...........
	271	13.6	-3.29438E-001	-1.84094E-004	0.00000E+000	-3.29950E-001	9.65346E-005	10	...........
	272	13.65	-3.39422E-001	-1.99522E-004	0.00000E+000	-3.39950E-001	9.35336E-005	10	...........
	273	13.7	-3.49486E-001	-2.16079E-004	0.00000E+000	-3.49950E-001	1.04170E-004	10	...........
	274	13.75	-3.59428E-001	-2.42581E-004	0.00000E+000	-3.59950E-001	9.11329E-005	10	...........
	275	13.8	-3.69412E-001	-2.70504E-004	0.00000E+000	-3.69950E-001	1.03003E-004	10	...........
	276	13.85	-3.79443E-001	-3.11745E-004	0.00000E+000	-3.79950E-001	9.11329E-005	10	...........
	277	13.9	-3.89440E-001	-3.58296E-004	0.00000E+000	-3.89950E-001	9.96356E-005	10	...........
	278	13.95	-3.99436E-001	-4.26700E-004	0.00000E+000	-3.99950E-001	9.11995E-005	10	...........
	279	14	-4.09404E-001	-5.07458E-004	0.00000E+000	-4.09950E-001	9.09328E-005	10	...........
	280	14.05	-4.19274E-001	-6.11618E-004	0.00000E+000	-4.19950E-001	9.02659E-005	10	...........
	281	14.1	-4.29400E-001	-7.17001E-004	0.00000E+000	-4.29950E-001	9.74015E-005	10	...........
	282	14.15	-4.39338E-001	-8.23216E-004	0.00000E+000	-4.39950E-001	9.09328E-005	10	...........
	283	14.2	-4.49377E-001	-8.98611E-004	0.00000E+000	-4.49950E-001	9.82684E-005	10	...........
	284	14.25	-4.59268E-001	-9.50554E-004	0.00000E+000	-4.59950E-001	9.27334E-005	10	...........
	285	14.3	-4.69372E-001	-9.66396E-004	0.00000E+000	-4.69950E-001	1.01203E-004	10	...........
	286	14.35	-4.79369E-001	-9.74125E-004	0.00000E+000	-4.79950E-001	8.94323E-005	10	...........
	287	14.4	-4.89310E-001	-9.69612E-004	0.00000E+000	-4.89950E-001	9.41005E-005	10	...........
	288	14.45	-4.99358E-001	-9.76918E-004	0.00000E+000	-4.99950E-001	8.94990E-005	10	...........
	289	14.5	-5.09358E-001	-9.88319E-004	0.00000E+000	-5.09950E-001	1.01203E-004	10	...........
	290	14.55	-5.19309E-001	-1.02334E-003	0.00000E+000	-5.19950E-001	9.42005E-005	10	...........
	291	14.6	-5.29327E-001	-1.07283E-003	0.00000E+000	-5.29950E-001	9.99690E-005	10	...........
	292	14.65	-5.39204E-001	-1.15547E-003	0.00000E+000	-5.39950E-001	9.19665E-005	10	...........
	293	14.7	-5.49341E-001	-1.26094E-003	0.00000E+000	-5.49950E-001	1.03870E-004	10	...........
	294	14.75	-5.59284E-001	-1.40804E-003	0.00000E+000	-5.59950E-001	9.36336E-005	10	...........
	295	14.8	-5.69258E-001	-1.57991E-003	0.00000E+000	-5.69950E-001	9.91354E-005	10	...........
	296	14.85	-5.79253E-001	-1.78024E-003	0.00000E+000	-5.79950E-001	9.34669E-005	10	...........
	297	14.9	-5.89275E-001	-1.96305E-003	0.00000E+000	-5.89950E-001	9.86686E-005	10	...........
	298	14.95	-5.99267E-001	-2.11328E-003	0.00000E+000	-5.99950E-001	9.24999E-005	10	...........
	299	15	-6.09261E-001	-2.20253E-003	0.00000E+000	-6.09950E-001	1.00536E-004	10	...........
	300	15.05	-6.19098E-001	-2.24928E-003	0.00000E+000	-6.19950E-001	9.59677E-005	10	...........
	301	15.1	-6.29277E-001	-2.26127E-003	0.00000E+000	-6.29950E-001	9.46340E-005	10	...........
	302	15.15	-6.39260E-001	-2.28426E-003	0.00000E+000	-6.39950E-001	9.28334E-005	10	...........
	303	15.2	-6.49176E-001	-2.32413E-003	0.00000E+000	-6.49950E-001	9.13996E-005	10	...........
	304	15.25	-6.59130E-001	-2.40643E-003	0.00000E+000	-6.59950E-001	9.07327E-005	10	...........
	305	15.3	-6.69234E-001	-2.52419E-003	0.00000E+000	-6.69950E-001	9.42338E-005	10	...........
	306	15.35	-6.79224E-001	-2.69722E-003	0.00000E+000	-6.79950E-001	9.28667E-005	10	...........
	307	15.4	-6.89177E-001	-2.93197E-003	0.00000E+000	-6.89950E-001	9.34002E-005	10	...........
	308	15.45	-6.99080E-001	-3.28311E-003	0.00000E+000	-6.99950E-001	9.48674E-005	10	...........
CURVE2	TABLE
	Pt	T	Vf	Im	Vu	Sig	Ach	IERange	Over
	#	s	V vs. Ref.	A	V	V	V	#	bits
	309	15.5	-6.89314E-001	-1.22292E-003	0.00000E+000	-6.90000E-001	9.81351E-005	10	...........
	310	15.55	-6.79379E-001	-1.35146E-004	0.00000E+000	-6.80000E-001	9.27000E-005	10	...........
	311	15.6	-6.69370E-001	5.24671E-004	0.00000E+000	-6.70000E-001	9.94688E-005	10	...........
	312	15.65	-6.59287E-001	9.06056E-004	0.00000E+000	-6.60000E-001	9.21332E-005	10	...........
	313	15.7	-6.49321E-001	1.12500E-003	0.00000E+000	-6.50000E-001	9.31001E-005	10	...........
	314	15.75	-6.39362E-001	1.24709E-003	0.00000E+000	-6.40000E-001	9.28667E-005	10	...........
	315	15.8	-6.29425E-001	1.33490E-003	0.00000E+000	-6.30000E-001	9.65346E-005	10	...........
	316	15.85	-6.19186E-001	1.39935E-003	0.00000E+000	-6.20000E-001	8.93990E-005	10	...........
	317	15.9	-6.09381E-001	1.47020E-003	0.00000E+000	-6.10000E-001	9.18998E-005	10	...........
	318	15.95	-5.99372E-001	1.54064E-003	0.00000E+000	-6.00000E-001	9.02659E-005	10	...........
	319	16	-5.89390E-001	1.62602E-003	0.00000E+000	-5.90000E-001	9.63678E-005	10	...........
	320	16.05	-5.79419E-001	1.70379E-003	0.00000E+000	-5.80000E-001	8.92322E-005	10	...........
	321	16.1	-5.69403E-001	1.77059E-003	0.00000E+000	-5.70000E-001	9.74349E-005	10	...........
	322	16.15	-5.59411E-001	1.77375E-003	0.00000E+000	-5.60000E-001	9.48007E-005	10	...........
	323	16.2	-5.49464E-001	1.68119E-003	0.00000E+000	-5.50000E-001	9.80684E-005	10	...........
	324	16.25	-5.39360E-001	1.50862E-003	0.00000E+000	-5.40000E-001	9.06327E-005	10	...........
	325	16.3	-5.29438E-001	1.34725E-003	0.00000E+000	-5.30000E-001	9.81351E-005	10	...........
	326	16.35	-5.19408E-001	1.22715E-003	0.00000E+000	-5.20000E-001	8.75984E-005	10	...........
	327	16.4	-5.09484E-001	1.16665E-003	0.00000E+000	-5.10000E-001	9.28667E-005	10	...........
	328	16.45	-4.99511E-001	1.14237E-003	0.00000E+000	-5.00000E-001	8.56978E-005	10	...........
	329	16.5	-4.89448E-001	1.14865E-003	0.00000E+000	-4.90000E-001	9.48007E-005	10	...........
	330	16.55	-4.79494E-001	1.14882E-003	0.00000E+000	-4.80000E-001	8.61979E-005	10	...........
	331	16.6	-4.69551E-001	1.15308E-003	0.00000E+000	-4.70000E-001	9.97356E-005	10	...........
	332	16.65	-4.59438E-001	1.16733E-003	0.00000E+000	-4.60000E-001	9.27334E-005	10	...........
	333	16.7	-4.49513E-001	1.21849E-003	0.00000E+000	-4.50000E-001	9.76016E-005	10	...........
	334	16.75	-4.39467E-001	1.28095E-003	0.00000E+000	-4.40000E-001	8.82653E-005	10	...........
	335	16.8	-4.29553E-001	1.33169E-003	0.00000E+000	-4.30000E-001	9.54009E-005	10	...........
	336	16.85	-4.19488E-001	1.29426E-003	0.00000E+000	-4.20000E-001	8.91322E-005	10	...........
	337	16.9	-4.09531E-001	1.14401E-003	0.00000E+000	-4.10000E-001	9.63345E-005	10	...........
	338	16.95	-3.99581E-001	9.10769E-004	0.00000E+000	-4.00000E-001	9.03993E-005	10	...........
	339	17	-3.89627E-001	7.13809E-004	0.00000E+000	-3.90000E-001	9.72348E-005	10	...........
	340	17.05	-3.79590E-001	5.79575E-004	0.00000E+000	-3.80000E-001	8.91656E-005	10	...........
	341	17.1	-3.69523E-001	5.00132E-004	0.00000E+000	-3.70000E-001	9.29001E-005	10	...........
	342	17.15	-3.59557E-001	4.41888E-004	0.00000E+000	-3.60000E-001	8.42973E-005	10	...........
	343	17.2	-3.49625E-001	4.03003E-004	0.00000E+000	-3.50000E-001	9.00325E-005	10	...........
	344	17.25	-3.39567E-001	3.66588E-004	0.00000E+000	-3.40000E-001	8.92656E-005	10	...........
	345	17.3	-3.29547E-001	3.40226E-004	0.00000E+000	-3.30000E-001	8.97658E-005	10	...........
	346	17.35	-3.19611E-001	3.16538E-004	0.00000E+000	-3.20000E-001	8.84987E-005	10	...........
	347	17.4	-3.09679E-001	3.03389E-004	0.00000E+000	-3.10000E-001	8.82319E-005	10	...........
	348	17.45	-2.99627E-001	2.94396E-004	0.00000E+000	-3.00000E-001	8.73316E-005	10	...........
	349	17.5	-2.89550E-001	2.94814E-004	0.00000E+000	-2.90000E-001	8.71316E-005	10	...........
	350	17.55	-2.79612E-001	2.98943E-004	0.00000E+000	-2.80000E-001	8.57645E-005	10	...........
	351	17.6	-2.69695E-001	3.09440E-004	0.00000E+000	-2.70000E-001	8.95657E-005	10	...........
	352	17.65	-2.59668E-001	3.21640E-004	0.00000E+000	-2.60000E-001	8.94990E-005	10	...........
	353	17.7	-2.49578E-001	3.38657E-004	0.00000E+000	-2.50000E-001	8.70982E-005	10	...........
	354	17.75	-2.39639E-001	3.57364E-004	0.00000E+000	-2.40000E-001	8.70315E-005	10	...........
	355	17.8	-2.29739E-001	3.78952E-004	0.00000E+000	-2.30000E-001	8.86321E-005	10	...........
	356	17.85	-2.19758E-001	4.00933E-004	0.00000E+000	-2.20000E-001	8.93323E-005	10	...........
	357	17.9	-2.09558E-001	4.24220E-004	0.00000E+000	-2.10000E-001	8.67648E-005	10	...........
	358	17.95	-1.99718E-001	4.46864E-004	0.00000E+000	-2.00000E-001	9.29334E-005	10	...........
	359	18	-1.89754E-001	4.69226E-004	0.00000E+000	-1.90000E-001	8.93990E-005	10	...........
	360	18.05	-1.79743E-001	4.89338E-004	0.00000E+000	-1.80000E-001	9.55676E-005	10	...........
	361	18.1	-1.69707E-001	5.08710E-004	0.00000E+000	-1.70000E-001	8.95990E-005	10	...........
	362	18.15	-1.59722E-001	5.23965E-004	0.00000E+000	-1.60000E-001	9.57677E-005	10	...........
	363	18.2	-1.49757E-001	5.37065E-004	0.00000E+000	-1.50000E-001	8.88988E-005	10	...........
	364	18.25	-1.39808E-001	5.45867E-004	0.00000E+000	-1.40000E-001	9.86686E-005	10	...........
	365	18.3	-1.29626E-001	5.52187E-004	0.00000E+000	-1.30000E-001	9.08327E-005	10	...........
	366	18.35	-1.19777E-001	5.53790E-004	0.00000E+000	-1.20000E-001	9.88686E-005	10	...........
	367	18.4	-1.09762E-001	5.53312E-004	0.00000E+000	-1.10000E-001	9.06327E-005	10	...........
	368	18.45	-9.98168E-002	5.49230E-004	0.00000E+000	-1.00000E-001	1.01803E-004	10	...........
	369	18.5	-8.98156E-002	5.42952E-004	0.00000E+000	-9.00000E-002	9.34669E-005	10	...........
	370	18.55	-7.97571E-002	5.34233E-004	0.00000E+000	-8.00000E-002	9.97689E-005	10	...........
	371	18.6	-6.98225E-002	5.23865E-004	0.00000E+000	-7.00000E-002	9.51341E-005	10	...........
	372	18.65	-5.98186E-002	5.11490E-004	0.00000E+000	-6.00000E-002	1.04037E-004	10	...........
	373	18.7	-4.97079E-002	4.98127E-004	0.00000E+000	-5.00000E-002	9.60011E-005	10	...........
	374	18.75	-3.98417E-002	4.83458E-004	0.00000E+000	-4.00000E-002	1.01936E-004	10	...........
	375	18.8	-2.97828E-002	4.68181E-004	0.00000E+000	-3.00000E-002	9.68013E-005	10	...........
	376	18.85	-1.98637E-002	4.52819E-004	0.00000E+000	-2.00000E-002	1.04037E-004	10	...........
	377	18.9	-9.69440E-003	4.37588E-004	0.00000E+000	-9.99999E-003	9.28334E-005	10	...........
	378	18.95	1.13584E-004	4.22334E-004	0.00000E+000	1.49012E-008	9.53342E-005	10	...........
	379	19	1.00776E-002	4.08680E-004	0.00000E+000	1.00000E-002	8.48308E-005	10	...........
	380	19.05	2.00286E-002	3.95834E-004	0.00000E+000	2.00000E-002	9.58010E-005	10	...........
	381	19.1	3.00884E-002	3.84802E-004	0.00000E+000	3.00000E-002	8.87654E-005	10	...........
	382	19.15	4.01182E-002	3.75334E-004	0.00000E+000	4.00000E-002	1.01403E-004	10	...........
	383	19.2	5.00726E-002	3.68756E-004	0.00000E+000	5.00000E-002	9.11329E-005	10	...........
	384	19.25	6.00316E-002	3.64564E-004	0.00000E+000	6.00000E-002	1.01836E-004	10	...........
	385	19.3	7.01497E-002	3.63444E-004	0.00000E+000	7.00000E-002	9.07327E-005	10	...........
	386	19.35	8.00679E-002	3.64137E-004	0.00000E+000	8.00000E-002	9.39004E-005	10	...........
	387	19.4	9.00217E-002	3.69124E-004	0.00000E+000	9.00000E-002	8.59645E-005	10	...........
	388	19.45	9.99529E-002	3.76039E-004	0.00000E+000	1.00000E-001	8.88988E-005	10	...........
	389	19.5	1.10023E-001	3.88457E-004	0.00000E+000	1.10000E-001	8.92656E-005	10	...........
	390	19.55	1.20056E-001	4.04531E-004	0.00000E+000	1.20000E-001	9.79684E-005	10	...........
	391	19.6	1.30018E-001	4.27580E-004	0.00000E+000	1.30000E-001	8.80652E-005	10	...........
	392	19.65	1.39949E-001	4.56006E-004	0.00000E+000	1.40000E-001	9.23999E-005	10	...........
	393	19.7	1.49968E-001	4.93976E-004	0.00000E+000	1.50000E-001	9.01992E-005	10	...........
	394	19.75	1.60040E-001	5.37667E-004	0.00000E+000	1.60000E-001	9.26667E-005	10	...........
	395	19.8	1.70008E-001	5.88839E-004	0.00000E+000	1.70000E-001	8.98658E-005	10	...........
	396	19.85	1.79868E-001	6.39937E-004	0.00000E+000	1.80000E-001	9.77016E-005	10	...........
	397	19.9	1.89909E-001	6.93235E-004	0.00000E+000	1.90000E-001	9.20998E-005	10	...........
	398	19.95	2.00040E-001	7.42304E-004	0.00000E+000	2.00000E-001	9.26333E-005	10	...........
[...]
	6590	329.55	9.19434E-001	1.86134E-003	0.00000E+000	9.20000E-001	9.77016E-005	10	...........
	6591	329.6	9.29483E-001	2.00903E-003	0.00000E+000	9.30000E-001	8.95323E-005	10	...........
	6592	329.65	9.39440E-001	2.17972E-003	0.00000E+000	9.40000E-001	8.99325E-005	10	...........
	6593	329.7	9.49403E-001	2.37389E-003	0.00000E+000	9.50000E-001	8.83320E-005	10	...........
	6594	329.75	9.59332E-001	2.59528E-003	0.00000E+000	9.60000E-001	9.12662E-005	10	...........
	6595	329.8	9.69527E-001	2.84324E-003	0.00000E+000	9.70000E-001	8.50643E-005	10	...........
	6596	329.85	9.79391E-001	3.12383E-003	0.00000E+000	9.80000E-001	9.31335E-005	10	...........
	6597	329.9	9.89391E-001	3.43588E-003	0.00000E+000	9.90000E-001	8.79318E-005	10	...........
	6598	329.95	9.99311E-001	3.78127E-003	0.00000E+000	1.00000E+000	9.33335E-005	10	...........
	6599	330	9.89477E-001	2.80355E-003	0.00000E+000	9.90000E-001	8.98324E-005	10	...........
	6600	330.05	9.79485E-001	2.12533E-003	0.00000E+000	9.80000E-001	9.37003E-005	10	...........
	6601	330.1	9.69630E-001	1.61334E-003	0.00000E+000	9.70000E-001	8.69315E-005	10	...........
	6602	330.15	9.59427E-001	1.22591E-003	0.00000E+000	9.60000E-001	9.75682E-005	10	...........
	6603	330.2	9.49494E-001	9.29440E-004	0.00000E+000	9.50000E-001	9.03326E-005	10	...........
	6604	330.25	9.39535E-001	7.04709E-004	0.00000E+000	9.40000E-001	9.26000E-005	10	...........
	6605	330.3	9.29582E-001	5.32615E-004	0.00000E+000	9.30000E-001	8.67981E-005	10	...........
	6606	330.35	9.19519E-001	4.01787E-004	0.00000E+000	9.20000E-001	9.12662E-005	10	...........
	6607	330.4	9.09477E-001	3.02012E-004	0.00000E+000	9.10000E-001	8.95990E-005	10	...........
	6608	330.45	8.99538E-001	2.25719E-004	0.00000E+000	9.00000E-001	8.96657E-005	10	...........
	6609	330.5	8.89694E-001	1.67658E-004	0.00000E+000	8.90000E-001	8.16632E-005	10	...........
	6610	330.55	8.79528E-001	1.22234E-004	0.00000E+000	8.80000E-001	9.16997E-005	10	...........
	6611	330.6	8.69513E-001	8.75602E-005	0.00000E+000	8.70000E-001	8.79318E-005	10	...........
	6612	330.65	8.59555E-001	6.02688E-005	0.00000E+000	8.60000E-001	9.49007E-005	10	...........
	6613	330.7	8.49693E-001	3.92236E-005	0.00000E+000	8.50000E-001	8.57311E-005	10	...........
	6614	330.75	8.39579E-001	2.21073E-005	0.00000E+000	8.40000E-001	8.74650E-005	10	...........
	6615	330.8	8.29537E-001	8.92175E-006	0.00000E+000	8.30000E-001	8.73316E-005	10	...........
	6616	330.85	8.19579E-001	-2.15702E-006	0.00000E+000	8.20000E-001	9.28001E-005	10	...........
	6617	330.9	8.09689E-001	-1.11957E-005	0.00000E+000	8.10000E-001	8.42640E-005	10	...........
	6618	330.95	7.99534E-001	-1.83404E-005	0.00000E+000	8.00000E-001	9.07327E-005	10	...........
	6619	331	7.89527E-001	-2.43106E-005	0.00000E+000	7.90000E-001	8.63647E-005	10	...........
	6620	331.05	7.79561E-001	-2.95699E-005	0.00000E+000	7.80000E-001	8.54644E-005	10	...........
	6621	331.1	7.69707E-001	-3.40482E-005	0.00000E+000	7.70000E-001	8.60979E-005	10	...........
	6622	331.15	7.59567E-001	-3.80290E-005	0.00000E+000	7.60000E-001	8.76317E-005	10	...........
	6623	331.2	7.49543E-001	-4.20318E-005	0.00000E+000	7.50000E-001	8.59979E-005	10	...........
	6624	331.25	7.39631E-001	-4.49869E-005	0.00000E+000	7.40000E-001	8.23300E-005	10	...........
	6625	331.3	7.29664E-001	-4.84062E-005	0.00000E+000	7.30000E-001	8.54644E-005	10	...........
	6626	331.35	7.19574E-001	-5.14633E-005	0.00000E+000	7.20000E-001	8.42973E-005	10	...........
	6627	331.4	7.09533E-001	-5.44617E-005	0.00000E+000	7.10000E-001	8.73316E-005	10	...........
	6628	331.45	6.99633E-001	-5.72981E-005	0.00000E+000	7.00000E-001	8.48308E-005	10	...........
	6629	331.5	6.89718E-001	-6.02626E-005	0.00000E+000	6.90000E-001	8.40639E-005	10	...........
	6630	331.55	6.79687E-001	-6.32810E-005	0.00000E+000	6.80000E-001	8.17299E-005	10	...........
	6631	331.6	6.69579E-001	-6.65422E-005	0.00000E+000	6.70000E-001	8.15298E-005	10	...........
	6632	331.65	6.59669E-001	-6.98601E-005	0.00000E+000	6.60000E-001	7.95958E-005	10	...........
	6633	331.7	6.49696E-001	-7.36108E-005	0.00000E+000	6.50000E-001	8.41973E-005	10	...........
	6634	331.75	6.39682E-001	-7.64399E-005	0.00000E+000	6.40000E-001	8.11297E-005	10	...........
	6635	331.8	6.29547E-001	-8.07241E-005	0.00000E+000	6.30000E-001	8.73983E-005	10	...........
	6636	331.85	6.19687E-001	-8.37319E-005	0.00000E+000	6.20000E-001	8.33304E-005	10	...........
	6637	331.9	6.09757E-001	-8.80162E-005	0.00000E+000	6.10000E-001	8.87654E-005	10	...........
	6638	331.95	5.99679E-001	-9.14741E-005	0.00000E+000	6.00000E-001	8.27969E-005	10	...........
	6639	332	5.89639E-001	-9.62059E-005	0.00000E+000	5.90000E-001	9.36336E-005	10	...........
	6640	332.05	5.79777E-001	-9.99439E-005	0.00000E+000	5.80000E-001	8.39306E-005	10	...........
	6641	332.1	5.69756E-001	-1.04766E-004	0.00000E+000	5.70000E-001	8.69315E-005	10	...........
	6642	332.15	5.59774E-001	-1.08252E-004	0.00000E+000	5.60000E-001	7.93624E-005	10	...........
	6643	332.2	5.49698E-001	-1.13452E-004	0.00000E+000	5.50000E-001	9.12662E-005	10	...........
	6644	332.25	5.39766E-001	-1.17344E-004	0.00000E+000	5.40000E-001	8.38305E-005	10	...........
	6645	332.3	5.29805E-001	-1.23117E-004	0.00000E+000	5.30000E-001	8.91989E-005	10	...........
	6646	332.35	5.19763E-001	-1.27233E-004	0.00000E+000	5.20000E-001	8.19299E-005	10	...........
	6647	332.4	5.09758E-001	-1.33104E-004	0.00000E+000	5.10000E-001	9.44673E-005	10	...........
	6648	332.45	4.99770E-001	-1.37511E-004	0.00000E+000	5.00000E-001	8.21633E-005	10	...........
	6649	332.5	4.89830E-001	-1.43954E-004	0.00000E+000	4.90000E-001	9.31668E-005	10	...........
	6650	332.55	4.79948E-001	-1.48937E-004	0.00000E+000	4.80000E-001	8.69649E-005	10	...........
	6651	332.6	4.69794E-001	-1.55967E-004	0.00000E+000	4.70000E-001	9.44673E-005	10	...........
	6652	332.65	4.59856E-001	-1.61433E-004	0.00000E+000	4.60000E-001	9.08661E-005	10	...........
	6653	332.7	4.49855E-001	-1.69478E-004	0.00000E+000	4.50000E-001	1.01469E-004	10	...........
	6654	332.75	4.39890E-001	-1.75159E-004	0.00000E+000	4.40000E-001	8.79652E-005	10	...........
	6655	332.8	4.29863E-001	-1.84074E-004	0.00000E+000	4.30000E-001	9.99023E-005	10	...........
	6656	332.85	4.19847E-001	-1.90634E-004	0.00000E+000	4.20000E-001	9.06660E-005	10	...........
	6657	332.9	4.09875E-001	-2.00287E-004	0.00000E+000	4.10000E-001	9.72015E-005	10	...........
	6658	332.95	4.00051E-001	-2.07949E-004	0.00000E+000	4.00000E-001	8.82986E-005	10	...........
	6659	333	3.89870E-001	-2.19038E-004	0.00000E+000	3.90000E-001	9.80684E-005	10	...........
	6660	333.05	3.79913E-001	-2.27478E-004	0.00000E+000	3.80000E-001	9.06660E-005	10	...........
	6661	333.1	3.69886E-001	-2.40003E-004	0.00000E+000	3.70000E-001	9.81351E-005	10	...........
	6662	333.15	3.60078E-001	-2.50315E-004	0.00000E+000	3.60000E-001	8.81652E-005	10	...........
	6663	333.2	3.49889E-001	-2.64215E-004	0.00000E+000	3.50000E-001	9.46340E-005	10	...........
	6664	333.25	3.39890E-001	-2.75881E-004	0.00000E+000	3.40000E-001	8.84653E-005	10	...........
	6665	333.3	3.29975E-001	-2.92118E-004	0.00000E+000	3.30000E-001	9.35003E-005	10	...........
	6666	333.35	3.19982E-001	-3.05900E-004	0.00000E+000	3.20000E-001	8.58978E-005	10	...........
	6667	333.4	3.09911E-001	-3.24257E-004	0.00000E+000	3.10000E-001	9.31001E-005	10	...........
	6668	333.45	2.99926E-001	-3.40509E-004	0.00000E+000	3.00000E-001	8.87654E-005	10	...........
	6669	333.5	2.89965E-001	-3.61645E-004	0.00000E+000	2.90000E-001	9.60678E-005	10	...........
	6670	333.55	2.80094E-001	-3.80899E-004	0.00000E+000	2.80000E-001	8.93656E-005	10	...........
	6671	333.6	2.69961E-001	-4.05341E-004	0.00000E+000	2.70000E-001	9.97356E-005	10	...........
	6672	333.65	2.59932E-001	-4.28480E-004	0.00000E+000	2.60000E-001	8.94657E-005	10	...........
	6673	333.7	2.49987E-001	-4.57708E-004	0.00000E+000	2.50000E-001	9.19998E-005	10	...........
	6674	333.75	2.40023E-001	-4.85533E-004	0.00000E+000	2.40000E-001	9.38337E-005	10	...........
	6675	333.8	2.29982E-001	-5.20152E-004	0.00000E+000	2.30000E-001	9.31668E-005	10	...........
	6676	333.85	2.19929E-001	-5.53161E-004	0.00000E+000	2.20000E-001	9.27334E-005	10	...........
	6677	333.9	2.09993E-001	-5.94310E-004	0.00000E+000	2.10000E-001	9.28667E-005	10	...........
	6678	333.95	2.00106E-001	-6.35428E-004	0.00000E+000	2.00000E-001	9.01325E-005	10	...........
	6679	334	1.89988E-001	-6.84633E-004	0.00000E+000	1.90000E-001	8.94990E-005	10	...........
	6680	334.05	1.79949E-001	-7.35233E-004	0.00000E+000	1.80000E-001	8.97991E-005	10	...........
	6681	334.1	1.70076E-001	-7.96165E-004	0.00000E+000	1.70000E-001	8.55978E-005	10	...........
	6682	334.15	1.60110E-001	-8.58539E-004	0.00000E+000	1.60000E-001	9.10328E-005	10	...........
	6683	334.2	1.50061E-001	-9.32588E-004	0.00000E+000	1.50000E-001	8.54310E-005	10	...........
	6684	334.25	1.40048E-001	-1.00999E-003	0.00000E+000	1.40000E-001	9.04993E-005	10	...........
	6685	334.3	1.30112E-001	-1.10216E-003	0.00000E+000	1.30000E-001	8.21967E-005	10	...........
	6686	334.35	1.20149E-001	-1.20151E-003	0.00000E+000	1.20000E-001	9.07327E-005	10	...........
	6687	334.4	1.10101E-001	-1.31753E-003	0.00000E+000	1.10000E-001	8.67648E-005	10	...........
	6688	334.45	1.00083E-001	-1.44358E-003	0.00000E+000	1.00000E-001	9.64012E-005	10	...........
	6689	334.5	9.00790E-002	-1.58981E-003	0.00000E+000	9.00000E-002	8.94990E-005	10	...........
	6690	334.55	8.01654E-002	-1.74857E-003	0.00000E+000	8.00000E-002	9.40338E-005	10	...........
	6691	334.6	7.02566E-002	-1.92998E-003	0.00000E+000	7.00000E-002	9.19331E-005	10	...........
	6692	334.65	6.01263E-002	-2.12320E-003	0.00000E+000	6.00000E-002	1.01903E-004	10	...........
	6693	334.7	5.01851E-002	-2.33526E-003	0.00000E+000	5.00000E-002	8.81319E-005	10	...........
	6694	334.75	4.02177E-002	-2.55380E-003	0.00000E+000	4.00000E-002	9.51008E-005	10	...........
	6695	334.8	3.01867E-002	-2.78100E-003	0.00000E+000	3.00000E-002	8.49642E-005	10	...........
	6696	334.85	2.01803E-002	-2.99983E-003	0.00000E+000	2.00000E-002	9.46340E-005	10	...........
	6697	334.9	1.01831E-002	-3.20772E-003	0.00000E+000	1.00000E-002	8.69982E-005	10	...........
	6698	334.95	2.25020E-004	-3.38166E-003	0.00000E+000	1.49012E-008	9.62345E-005	10	...........
	6699	335	-9.60364E-003	-3.51465E-003	0.00000E+000	-9.99999E-003	8.61313E-005	10	...........
	6700	335.05	-1.97539E-002	-3.58186E-003	0.00000E+000	-2.00000E-002	1.00102E-004	10	...........
	6701	335.1	-2.96898E-002	-3.57732E-003	0.00000E+000	-3.00000E-002	9.04993E-005	10	...........
	6702	335.15	-3.97364E-002	-3.48314E-003	0.00000E+000	-4.00000E-002	9.13663E-005	10	...........
	6703	335.2	-4.95790E-002	-3.30676E-003	0.00000E+000	-5.00000E-002	8.87654E-005	10	...........
	6704	335.25	-5.97188E-002	-3.04692E-003	0.00000E+000	-6.00000E-002	9.86686E-005	10	...........
	6705	335.3	-6.97367E-002	-2.73187E-003	0.00000E+000	-7.00000E-002	8.99325E-005	10	...........
	6706	335.35	-7.96703E-002	-2.37961E-003	0.00000E+000	-8.00000E-002	9.00658E-005	10	...........
	6707	335.4	-8.97127E-002	-2.02742E-003	0.00000E+000	-9.00000E-002	8.60979E-005	10	...........
	6708	335.45	-9.97356E-002	-1.69271E-003	0.00000E+000	-1.00000E-001	1.00236E-004	10	...........
	6709	335.5	-1.09694E-001	-1.39801E-003	0.00000E+000	-1.10000E-001	8.71649E-005	10	...........
	6710	335.55	-1.19694E-001	-1.14148E-003	0.00000E+000	-1.20000E-001	9.72681E-005	10	...........
	6711	335.6	-1.29573E-001	-9.30343E-004	0.00000E+000	-1.30000E-001	8.77651E-005	10	...........
	6712	335.65	-1.39743E-001	-7.52287E-004	0.00000E+000	-1.40000E-001	9.46340E-005	10	...........
	6713	335.7	-1.49700E-001	-6.10727E-004	0.00000E+000	-1.50000E-001	9.03659E-005	10	...........
	6714	335.75	-1.59669E-001	-4.91672E-004	0.00000E+000	-1.60000E-001	9.19665E-005	10	...........
	6715	335.8	-1.69626E-001	-3.98634E-004	0.00000E+000	-1.70000E-001	8.32970E-005	10	...........
	6716	335.85	-1.79656E-001	-3.21287E-004	0.00000E+000	-1.80000E-001	8.80986E-005	10	...........
	6717	335.9	-1.89669E-001	-2.63836E-004	0.00000E+000	-1.90000E-001	8.62980E-005	10	...........
	6718	335.95	-1.99644E-001	-2.16765E-004	0.00000E+000	-2.00000E-001	9.44339E-005	10	...........
	6719	336	-2.09497E-001	-1.85922E-004	0.00000E+000	-2.10000E-001	8.75317E-005	10	...........
	6720	336.05	-2.19657E-001	-1.60278E-004	0.00000E+000	-2.20000E-001	8.48308E-005	10	...........
	6721	336.1	-2.29663E-001	-1.46570E-004	0.00000E+000	-2.30000E-001	8.67314E-005	10	...........
	6722	336.15	-2.39558E-001	-1.34615E-004	0.00000E+000	-2.40000E-001	8.68982E-005	10	...........
	6723	336.2	-2.49538E-001	-1.30925E-004	0.00000E+000	-2.50000E-001	8.80652E-005	10	...........
	6724	336.25	-2.59614E-001	-1.25804E-004	0.00000E+000	-2.60000E-001	8.69649E-005	10	...........
	6725	336.3	-2.69605E-001	-1.27610E-004	0.00000E+000	-2.70000E-001	8.56311E-005	10	...........
	6726	336.35	-2.79561E-001	-1.26500E-004	0.00000E+000	-2.80000E-001	8.58645E-005	10	...........
	6727	336.4	-2.89492E-001	-1.31990E-004	0.00000E+000	-2.90000E-001	8.92322E-005	10	...........
	6728	336.45	-2.99582E-001	-1.35205E-004	0.00000E+000	-3.00000E-001	8.66981E-005	10	...........
	6729	336.5	-3.09588E-001	-1.45553E-004	0.00000E+000	-3.10000E-001	9.47340E-005	10	...........
	6730	336.55	-3.19572E-001	-1.54633E-004	0.00000E+000	-3.20000E-001	9.02993E-005	10	...........
	6731	336.6	-3.29471E-001	-1.72093E-004	0.00000E+000	-3.30000E-001	8.78985E-005	10	...........
	6732	336.65	-3.39495E-001	-1.89031E-004	0.00000E+000	-3.40000E-001	8.89988E-005	10	...........
	6733	336.7	-3.49545E-001	-2.16286E-004	0.00000E+000	-3.50000E-001	9.30001E-005	10	...........
	6734	336.75	-3.59489E-001	-2.42694E-004	0.00000E+000	-3.60000E-001	8.71983E-005	10	...........
	6735	336.8	-3.69461E-001	-2.80888E-004	0.00000E+000	-3.70000E-001	9.39004E-005	10	...........
	6736	336.85	-3.79516E-001	-3.24547E-004	0.00000E+000	-3.80000E-001	8.86654E-005	10	...........
	6737	336.9	-3.89513E-001	-3.90322E-004	0.00000E+000	-3.90000E-001	9.42338E-005	10	...........
	6738	336.95	-3.99483E-001	-4.74129E-004	0.00000E+000	-4.00000E-001	8.99325E-005	10	...........
	6739	337	-4.09446E-001	-5.93891E-004	0.00000E+000	-4.10000E-001	9.60678E-005	10	...........
	6740	337.05	-4.19380E-001	-7.38513E-004	0.00000E+000	-4.20000E-001	9.46340E-005	10	...........
	6741	337.1	-4.29450E-001	-9.00333E-004	0.00000E+000	-4.30000E-001	9.80017E-005	10	...........
	6742	337.15	-4.39377E-001	-1.03634E-003	0.00000E+000	-4.40000E-001	9.30001E-005	10	...........
	6743	337.2	-4.49422E-001	-1.11121E-003	0.00000E+000	-4.50000E-001	1.01436E-004	10	...........
	6744	337.25	-4.59349E-001	-1.10311E-003	0.00000E+000	-4.60000E-001	9.25333E-005	10	...........
	6745	337.3	-4.69435E-001	-1.04890E-003	0.00000E+000	-4.70000E-001	9.65346E-005	10	...........
	6746	337.35	-4.79415E-001	-9.84090E-004	0.00000E+000	-4.80000E-001	8.86321E-005	10	...........
	6747	337.4	-4.89353E-001	-9.40233E-004	0.00000E+000	-4.90000E-001	1.00569E-004	10	...........
	6748	337.45	-4.99409E-001	-9.15807E-004	0.00000E+000	-5.00000E-001	8.88988E-005	10	...........
	6749	337.5	-5.09407E-001	-9.19074E-004	0.00000E+000	-5.10000E-001	9.57677E-005	10	...........
	6750	337.55	-5.19340E-001	-9.43879E-004	0.00000E+000	-5.20000E-001	8.92656E-005	10	...........
	6751	337.6	-5.29359E-001	-1.00106E-003	0.00000E+000	-5.30000E-001	1.00069E-004	10	...........
	6752	337.65	-5.39274E-001	-1.08932E-003	0.00000E+000	-5.40000E-001	9.40338E-005	10	...........
	6753	337.7	-5.49365E-001	-1.22538E-003	0.00000E+000	-5.50000E-001	1.00736E-004	10	...........
	6754	337.75	-5.59311E-001	-1.40933E-003	0.00000E+000	-5.60000E-001	8.89988E-005	10	...........
	6755	337.8	-5.69294E-001	-1.64102E-003	0.00000E+000	-5.70000E-001	9.47006E-005	10	...........
	6756	337.85	-5.79304E-001	-1.89101E-003	0.00000E+000	-5.80000E-001	9.21332E-005	10	...........
	6757	337.9	-5.89307E-001	-2.09782E-003	0.00000E+000	-5.90000E-001	9.52342E-005	10	...........
	6758	337.95	-5.99277E-001	-2.18960E-003	0.00000E+000	-6.00000E-001	8.80319E-005	10	...........
	6759	338	-6.09295E-001	-2.17960E-003	0.00000E+000	-6.10000E-001	9.42672E-005	10	...........
	6760	338.05	-6.19118E-001	-2.12786E-003	0.00000E+000	-6.20000E-001	9.64012E-005	10	...........
	6761	338.1	-6.29321E-001	-2.08887E-003	0.00000E+000	-6.30000E-001	9.87353E-005	10	...........
	6762	338.15	-6.39278E-001	-2.08274E-003	0.00000E+000	-6.40000E-001	9.63345E-005	10	...........
	6763	338.2	-6.49228E-001	-2.11889E-003	0.00000E+000	-6.50000E-001	9.16997E-005	10	...........
	6764	338.25	-6.59184E-001	-2.19125E-003	0.00000E+000	-6.60000E-001	9.29668E-005	10	...........
	6765	338.3	-6.69280E-001	-2.30070E-003	0.00000E+000	-6.70000E-001	9.58677E-005	10	...........
	6766	338.35	-6.79280E-001	-2.45049E-003	0.00000E+000	-6.80000E-001	9.11995E-005	10	...........
	6767	338.4	-6.89227E-001	-2.67049E-003	0.00000E+000	-6.90000E-001	9.68347E-005	10	...........
	6768	338.45	-6.99121E-001	-3.00622E-003	0.00000E+000	-7.00000E-001	9.03659E-005	10	...........
CURVE21	TABLE
	Pt	T	Vf	Im	Vu	Sig	Ach	IERange	Over
	#	s	V vs. Ref.	A	V	V	V	#	bits
	6769	338.5	-6.89333E-001	-9.25615E-004	0.00000E+000	-6.90000E-001	9.04993E-005	10	...........
	6770	338.55	-6.79382E-001	1.55400E-004	0.00000E+000	-6.80000E-001	8.70649E-005	10	...........
	6771	338.6	-6.69381E-001	7.83401E-004	0.00000E+000	-6.70000E-001	9.27334E-005	10	...........
	6772	338.65	-6.59274E-001	1.12787E-003	0.00000E+000	-6.60000E-001	8.71983E-005	10	...........
	6773	338.7	-6.49320E-001	1.29988E-003	0.00000E+000	-6.50000E-001	9.71348E-005	10	...........
	6774	338.75	-6.39359E-001	1.39030E-003	0.00000E+000	-6.40000E-001	8.97991E-005	10	...........
	6775	338.8	-6.29426E-001	1.44605E-003	0.00000E+000	-6.30000E-001	9.31668E-005	10	...........
	6776	338.85	-6.19177E-001	1.49480E-003	0.00000E+000	-6.20000E-001	8.28636E-005	10	...........
	6777	338.9	-6.09371E-001	1.54814E-003	0.00000E+000	-6.10000E-001	9.24333E-005	10	...........
	6778	338.95	-5.99365E-001	1.61874E-003	0.00000E+000	-6.00000E-001	8.94657E-005	10	...........
	6779	339	-5.89386E-001	1.70915E-003	0.00000E+000	-5.90000E-001	9.61011E-005	10	...........
	6780	339.05	-5.79415E-001	1.81495E-003	0.00000E+000	-5.80000E-001	8.80986E-005	10	...........
	6781	339.1	-5.69400E-001	1.91815E-003	0.00000E+000	-5.70000E-001	9.22999E-005	10	...........
	6782	339.15	-5.59412E-001	1.95585E-003	0.00000E+000	-5.60000E-001	9.11995E-005	10	...........
	6783	339.2	-5.49468E-001	1.84185E-003	0.00000E+000	-5.50000E-001	9.45006E-005	10	...........
	6784	339.25	-5.39345E-001	1.60956E-003	0.00000E+000	-5.40000E-001	8.85320E-005	10	...........
	6785	339.3	-5.29429E-001	1.38594E-003	0.00000E+000	-5.30000E-001	9.49674E-005	10	...........
	6786	339.35	-5.19405E-001	1.24180E-003	0.00000E+000	-5.20000E-001	8.82653E-005	10	...........
	6787	339.4	-5.09486E-001	1.17318E-003	0.00000E+000	-5.10000E-001	1.00069E-004	10	...........
	6788	339.45	-4.99501E-001	1.16256E-003	0.00000E+000	-5.00000E-001	8.73983E-005	10	...........
	6789	339.5	-4.89430E-001	1.18665E-003	0.00000E+000	-4.90000E-001	9.53008E-005	10	...........
	6790	339.55	-4.79481E-001	1.20766E-003	0.00000E+000	-4.80000E-001	9.04993E-005	10	...........
	6791	339.6	-4.69540E-001	1.20984E-003	0.00000E+000	-4.70000E-001	9.81684E-005	10	...........
	6792	339.65	-4.59402E-001	1.22378E-003	0.00000E+000	-4.60000E-001	9.42338E-005	10	...........
	6793	339.7	-4.49503E-001	1.28448E-003	0.00000E+000	-4.50000E-001	9.83018E-005	10	...........
	6794	339.75	-4.39453E-001	1.38098E-003	0.00000E+000	-4.40000E-001	8.84987E-005	10	...........
	6795	339.8	-4.29545E-001	1.45958E-003	0.00000E+000	-4.30000E-001	9.54342E-005	10	...........
	6796	339.85	-4.19473E-001	1.42960E-003	0.00000E+000	-4.20000E-001	8.59312E-005	10	...........
	6797	339.9	-4.09524E-001	1.23425E-003	0.00000E+000	-4.10000E-001	8.84987E-005	10	...........
	6798	339.95	-3.99573E-001	9.42328E-004	0.00000E+000	-4.00000E-001	8.23300E-005	10	...........
	6799	340	-3.89620E-001	7.04772E-004	0.00000E+000	-3.90000E-001	8.62646E-005	10	...........
	6800	340.05	-3.79581E-001	5.65740E-004	0.00000E+000	-3.80000E-001	8.57978E-005	10	...........