File: 20190222 HUPD/CV_test_2.DTA
EXPLAIN
TAG	CV
TITLE	LABEL	CV	Test &Identifier
DATE	LABEL	2/22/2019	Date
TIME	LABEL	10:57:34	Time
NOTES	NOTES	2	&Notes...
	0.5 M H2SO4
	Pt-wire CE
PSTAT	PSTAT	REF600-16093	Potentiostat
VINIT	POTEN	0.00000E+000	T	Initial &E (V)
VLIMIT1	POTEN	9.00000E-001	F	Scan Limit &1 (V)
VLIMIT2	POTEN	-6.95000E-001	F	Scan Limit &2 (V)
VFINAL	POTEN	0.00000E+000	T	Final &E (V)
SCANRATE	QUANT	2.00000E+002	&Scan Rate (mV/s)
STEPSIZE	QUANT	1.00000E+001	St&ep Size (mV)
CYCLES	IQUANT	10	C&ycles (#)
IMODE	SELECTOR	1	I/E Range &Mode
IRANGE	QUANT	1.00000E+001	&Max Current (mA)
AREA	QUANT	1.00000E+000	Electrode &Area (cm^2)
ELECTRODETYPE	SELECTOR	0	Electrode Type
STRIPPING	TOGGLE	F	Used for Stripping
POLARITY	TOGGLE	F	Signal Polarity
CONDIT	TWOPARAM	F	1.50000E+001	0.00000E+000	Conditionin&g	Time(s)	E(V)
DELAY	TWOPARAM	T	5.00000E+000	0.00000E+000	Init. De&lay	Time(s)	Stab.(mV/s)
EQDELAY	QUANT	5.00000E+000	Equil. &Time (s)
IRCOMP	SELECTOR	0	IRCom&p
PFCOR	QUANT	0.00000E+000	PF Corr. (ohm)
SAMPLINGMODE	SELECTOR	2	Sampling &Mode
OCVCURVE	TABLE	20
	Pt	T	Vf	Vm	Ach	Over
	#	s	V vs. Ref.	V	V	bits
	0	0.25	-3.70547E-001	-3.70547E-001	6.70596E-005	...........
	1	0.5	-3.70546E-001	-3.70528E-001	6.37263E-005	...........
	2	0.75	-3.70544E-001	-3.70503E-001	6.62596E-005	...........
	3	1	-3.70537E-001	-3.70462E-001	6.08930E-005	...........
	4	1.25	-3.70522E-001	-3.70442E-001	6.53597E-005	...........
	5	1.5	-3.70498E-001	-3.70384E-001	6.19597E-005	...........
	6	1.75	-3.70468E-001	-3.70344E-001	6.15597E-005	...........
	7	2	-3.70432E-001	-3.70276E-001	6.40263E-005	...........
	8	2.25	-3.70388E-001	-3.70234E-001	6.52263E-005	...........
	9	2.5	-3.70340E-001	-3.70208E-001	6.05931E-005	...........
	10	2.75	-3.70292E-001	-3.70192E-001	6.50263E-005	...........
	11	3	-3.70250E-001	-3.70171E-001	6.82929E-005	...........
	12	3.25	-3.70218E-001	-3.70162E-001	6.51597E-005	...........
	13	3.5	-3.70194E-001	-3.70143E-001	6.50597E-005	...........
	14	3.75	-3.70175E-001	-3.70121E-001	6.12264E-005	...........
	15	4	-3.70158E-001	-3.70081E-001	6.08264E-005	...........
	16	4.25	-3.70138E-001	-3.70009E-001	5.85931E-005	...........
	17	4.5	-3.70109E-001	-3.69925E-001	5.33932E-005	...........
	18	4.75	-3.70064E-001	-3.69821E-001	5.47598E-005	...........
	19	5	-3.70000E-001	-3.69678E-001	5.38265E-005	...........
EOC	QUANT	-0.3699999	Open Circuit (V)
PSTATMODEL	IQUANT	4	Pstat Model
PSTATSECTION	LABEL	REF600-16093	Pstat Section
PSTATSERIALNO	LABEL	16093	Pstat Serial Number
CTRLMODE	IQUANT	1	Control Mode
IESTAB	IQUANT	2	I/E Stability
CASPEED	IQUANT	2	Control Amp Speed
CONVENTION	IQUANT	1	Current Convention
ICHRANGE	IQUANT	2	Ich Range
ICHRANGEMODE	TOGGLE	F	Ich Auto Range
ICHOFFSETENABLE	TOGGLE	F	Ich Offset Enable
ICHOFFSET	QUANT	0	Ich Offset (V)
ICHFILTER	IQUANT	2	Ich Filter
VCHRANGE	IQUANT	2	Vch Range
VCHRANGEMODE	TOGGLE	F	Vch Auto Range
VCHOFFSETENABLE	TOGGLE	F	Vch Offset Enable
VCHOFFSET	QUANT	0	Vch Offset (V)
VCHFILTER	IQUANT	2	Vch Filter
ACHRANGE	IQUANT	2	Ach Range
ACHOFFSETENABLE	TOGGLE	F	Ach Offset Enable
ACHOFFSET	QUANT	0	Ach Offset (V)
ACHFILTER	IQUANT	1	Ach Filter
IERANGELOWERLIMIT	IQUANT	1	I/E Range Lower Limit
IERANGEMODE	TOGGLE	F	I/E AutoRange
IERANGE	IQUANT	10	I/E Range
POSFEEDENABLE	TOGGLE	F	Positive Feedback IR Comp
POSFEEDRESISTANCE	QUANT	0	Positive Feedback Resistance (ohm)
ACHSELECT	IQUANT	0	Ach Select
CABLEID	IQUANT	14	Cable ID
DCCALDATE	LABEL	2/18/2019	DC Calibration Date
ACCALDATE	LABEL	2/18/2019	AC Calibration Date
THERMOSELECT	IQUANT	1	Thermo Select
FRAMEWORKVERSION	QUANT	6.33	Framework Version
INSTRUMENTVERSION	LABEL	3.50	Instrument Version
CURVE1	TABLE
	Pt	T	Vf	Im	Vu	Sig	Ach	IERange	Over
	#	s	V vs. Ref.	A	V	V	V	#	bits
	0	0.05	-3.69538E-001	-2.94065E-006	0.00000E+000	-3.70000E-001	6.96260E-005	10	...........
	1	0.1	-3.59596E-001	7.94906E-005	0.00000E+000	-3.60000E-001	6.56581E-005	10	...........
	2	0.15	-3.49668E-001	7.85356E-005	0.00000E+000	-3.50000E-001	7.25269E-005	10	...........
	3	0.2	-3.39676E-001	7.50703E-005	0.00000E+000	-3.40000E-001	6.58915E-005	10	...........
	4	0.25	-3.29555E-001	7.53297E-005	0.00000E+000	-3.30000E-001	7.35272E-005	10	...........
	5	0.3	-3.19669E-001	7.50796E-005	0.00000E+000	-3.20000E-001	6.48245E-005	10	...........
	6	0.35	-3.09752E-001	7.82748E-005	0.00000E+000	-3.10000E-001	7.20935E-005	10	...........
	7	0.4	-2.99683E-001	8.11919E-005	0.00000E+000	-3.00000E-001	7.42275E-005	10	...........
	8	0.45	-2.89563E-001	8.80277E-005	0.00000E+000	-2.90000E-001	7.05263E-005	10	...........
	9	0.5	-2.79661E-001	9.47282E-005	0.00000E+000	-2.80000E-001	7.12932E-005	10	...........
	10	0.55	-2.69742E-001	1.04268E-004	0.00000E+000	-2.70000E-001	6.95593E-005	10	...........
	11	0.6	-2.59733E-001	1.14615E-004	0.00000E+000	-2.60000E-001	7.01929E-005	10	...........
	12	0.65	-2.49599E-001	1.28724E-004	0.00000E+000	-2.50000E-001	6.60582E-005	10	...........
	13	0.7	-2.39667E-001	1.43030E-004	0.00000E+000	-2.40000E-001	7.22268E-005	10	...........
	14	0.75	-2.29756E-001	1.61178E-004	0.00000E+000	-2.30000E-001	7.12599E-005	10	...........
	15	0.8	-2.19791E-001	1.80170E-004	0.00000E+000	-2.20000E-001	7.48943E-005	10	...........
	16	0.85	-2.09562E-001	2.03224E-004	0.00000E+000	-2.10000E-001	7.06930E-005	10	...........
	17	0.9	-1.99732E-001	2.26897E-004	0.00000E+000	-2.00000E-001	8.08629E-005	10	...........
	18	0.95	-1.89767E-001	2.54257E-004	0.00000E+000	-1.90000E-001	7.68950E-005	10	...........
	19	1	-1.79820E-001	2.81385E-004	0.00000E+000	-1.80000E-001	7.75285E-005	10	...........
	20	1.05	-1.69743E-001	3.11732E-004	0.00000E+000	-1.70000E-001	7.10265E-005	10	...........
	21	1.1	-1.59753E-001	3.40632E-004	0.00000E+000	-1.60000E-001	7.89623E-005	10	...........
	22	1.15	-1.49773E-001	3.71083E-004	0.00000E+000	-1.50000E-001	7.56946E-005	10	...........
	23	1.2	-1.39968E-001	3.98527E-004	0.00000E+000	-1.40000E-001	7.68283E-005	10	...........
	24	1.25	-1.29657E-001	4.26167E-004	0.00000E+000	-1.30000E-001	6.85257E-005	10	...........
	25	1.3	-1.19811E-001	4.49178E-004	0.00000E+000	-1.20000E-001	7.82287E-005	10	...........
	26	1.35	-1.09787E-001	4.71012E-004	0.00000E+000	-1.10000E-001	7.36273E-005	10	...........
	27	1.4	-9.98787E-002	4.86977E-004	0.00000E+000	-1.00000E-001	7.74618E-005	10	...........
	28	1.45	-8.98664E-002	5.00172E-004	0.00000E+000	-9.00000E-002	6.80255E-005	10	...........
	29	1.5	-7.97988E-002	5.07208E-004	0.00000E+000	-8.00000E-002	7.48610E-005	10	...........
	30	1.55	-6.98491E-002	5.11239E-004	0.00000E+000	-7.00000E-002	7.15933E-005	10	...........
	31	1.6	-6.01377E-002	5.09050E-004	0.00000E+000	-6.00000E-002	7.35939E-005	10	...........
	32	1.65	-4.97855E-002	5.04856E-004	0.00000E+000	-5.00000E-002	6.85590E-005	10	...........
	33	1.7	-3.98774E-002	4.95507E-004	0.00000E+000	-4.00000E-002	7.41941E-005	10	...........
	34	1.75	-2.98248E-002	4.85652E-004	0.00000E+000	-3.00000E-002	7.10265E-005	10	...........
	35	1.8	-1.99199E-002	4.71750E-004	0.00000E+000	-2.00000E-002	7.37940E-005	10	...........
	36	1.85	-9.76332E-003	4.58675E-004	0.00000E+000	-9.99999E-003	6.54247E-005	10	...........
	37	1.9	6.60693E-005	4.44038E-004	0.00000E+000	7.45058E-009	6.99928E-005	10	...........
	38	1.95	1.00308E-002	4.31390E-004	0.00000E+000	1.00000E-002	6.90592E-005	10	...........
	39	2	1.98450E-002	4.18395E-004	0.00000E+000	2.00000E-002	7.42608E-005	10	...........
	40	2.05	3.00171E-002	4.07812E-004	0.00000E+000	3.00000E-002	7.09931E-005	10	...........
	41	2.1	4.00604E-002	3.97981E-004	0.00000E+000	4.00000E-002	7.38607E-005	10	...........
	42	2.15	5.00365E-002	3.91650E-004	0.00000E+000	5.00000E-002	6.75587E-005	10	...........
	43	2.2	5.99274E-002	3.86220E-004	0.00000E+000	6.00000E-002	7.25603E-005	10	...........
	44	2.25	6.98589E-002	3.85333E-004	0.00000E+000	7.00000E-002	6.69918E-005	10	...........
	45	2.3	8.00458E-002	3.85181E-004	0.00000E+000	8.00000E-002	6.99594E-005	10	...........
	46	2.35	8.99439E-002	3.89415E-004	0.00000E+000	9.00000E-002	6.80255E-005	10	...........
	47	2.4	9.98421E-002	3.94966E-004	0.00000E+000	1.00000E-001	7.57946E-005	10	...........
	48	2.45	1.09960E-001	4.05359E-004	0.00000E+000	1.10000E-001	6.97594E-005	10	...........
	49	2.5	1.20040E-001	4.17476E-004	0.00000E+000	1.20000E-001	6.86590E-005	10	...........
	50	2.55	1.29964E-001	4.34341E-004	0.00000E+000	1.30000E-001	7.25936E-005	10	...........
	51	2.6	1.39866E-001	4.51939E-004	0.00000E+000	1.40000E-001	7.17600E-005	10	...........
	52	2.65	1.49860E-001	4.74706E-004	0.00000E+000	1.50000E-001	6.93926E-005	10	...........
	53	2.7	1.60029E-001	4.97778E-004	0.00000E+000	1.60000E-001	6.94593E-005	10	...........
	54	2.75	1.69961E-001	5.26187E-004	0.00000E+000	1.70000E-001	6.70252E-005	10	...........
	55	2.8	1.79840E-001	5.54529E-004	0.00000E+000	1.80000E-001	7.24603E-005	10	...........
	56	2.85	1.89854E-001	5.88819E-004	0.00000E+000	1.90000E-001	7.02262E-005	10	...........
	57	2.9	2.00036E-001	6.22293E-004	0.00000E+000	2.00000E-001	6.86924E-005	10	...........
	58	2.95	2.09883E-001	6.60888E-004	0.00000E+000	2.10000E-001	7.64949E-005	10	...........
	59	3	2.19831E-001	6.99121E-004	0.00000E+000	2.20000E-001	7.28937E-005	10	...........
	60	3.05	2.29730E-001	7.42982E-004	0.00000E+000	2.30000E-001	7.42275E-005	10	...........
	61	3.1	2.39947E-001	7.85394E-004	0.00000E+000	2.40000E-001	7.12932E-005	10	...........
	62	3.15	2.49886E-001	8.34488E-004	0.00000E+000	2.50000E-001	7.55279E-005	10	...........
	63	3.2	2.59828E-001	8.80117E-004	0.00000E+000	2.60000E-001	7.48943E-005	10	...........
	64	3.25	2.69602E-001	9.31963E-004	0.00000E+000	2.70000E-001	7.34272E-005	10	...........
	65	3.3	2.80013E-001	9.79299E-004	0.00000E+000	2.80000E-001	7.27270E-005	10	...........
	66	3.35	2.89841E-001	1.03047E-003	0.00000E+000	2.90000E-001	7.53945E-005	10	...........
	67	3.4	2.99819E-001	1.07630E-003	0.00000E+000	3.00000E-001	7.53612E-005	10	...........
	68	3.45	3.09701E-001	1.12517E-003	0.00000E+000	3.10000E-001	7.72284E-005	10	...........
	69	3.5	3.19810E-001	1.16711E-003	0.00000E+000	3.20000E-001	7.24936E-005	10	...........
	70	3.55	3.29836E-001	1.21167E-003	0.00000E+000	3.30000E-001	7.07264E-005	10	...........
	71	3.6	3.39799E-001	1.24977E-003	0.00000E+000	3.40000E-001	6.96593E-005	10	...........
	72	3.65	3.49445E-001	1.28982E-003	0.00000E+000	3.50000E-001	7.26936E-005	10	...........
	73	3.7	3.59966E-001	1.32330E-003	0.00000E+000	3.60000E-001	7.38940E-005	10	...........
	74	3.75	3.69791E-001	1.35846E-003	0.00000E+000	3.70000E-001	7.51944E-005	10	...........
	75	3.8	3.79787E-001	1.38759E-003	0.00000E+000	3.80000E-001	7.21601E-005	10	...........
	76	3.85	3.89714E-001	1.41773E-003	0.00000E+000	3.90000E-001	7.42942E-005	10	...........
	77	3.9	3.99931E-001	1.44067E-003	0.00000E+000	4.00000E-001	7.02595E-005	10	...........
	78	3.95	4.09720E-001	1.46375E-003	0.00000E+000	4.10000E-001	7.23269E-005	10	...........
	79	4	4.19718E-001	1.47963E-003	0.00000E+000	4.20000E-001	7.05596E-005	10	...........
	80	4.05	4.29440E-001	1.49580E-003	0.00000E+000	4.30000E-001	7.42942E-005	10	...........
	81	4.1	4.39714E-001	1.50543E-003	0.00000E+000	4.40000E-001	7.24936E-005	10	...........
	82	4.15	4.49719E-001	1.51617E-003	0.00000E+000	4.50000E-001	7.38273E-005	10	...........
	83	4.2	4.59691E-001	1.52243E-003	0.00000E+000	4.60000E-001	6.70919E-005	10	...........
	84	4.25	4.69637E-001	1.53185E-003	0.00000E+000	4.70000E-001	7.26936E-005	10	...........
	85	4.3	4.79769E-001	1.53800E-003	0.00000E+000	4.80000E-001	6.72586E-005	10	...........
	86	4.35	4.89679E-001	1.54864E-003	0.00000E+000	4.90000E-001	7.26270E-005	10	...........
	87	4.4	4.99643E-001	1.55772E-003	0.00000E+000	5.00000E-001	6.51913E-005	10	...........
	88	4.45	5.09440E-001	1.57175E-003	0.00000E+000	5.10000E-001	7.57946E-005	10	...........
	89	4.5	5.19618E-001	1.58291E-003	0.00000E+000	5.20000E-001	6.89591E-005	10	...........
	90	4.55	5.29656E-001	1.59789E-003	0.00000E+000	5.30000E-001	7.41608E-005	10	...........
	91	4.6	5.39626E-001	1.61014E-003	0.00000E+000	5.40000E-001	7.04596E-005	10	...........
	92	4.65	5.49540E-001	1.62469E-003	0.00000E+000	5.50000E-001	7.08264E-005	10	...........
	93	4.7	5.59583E-001	1.63732E-003	0.00000E+000	5.60000E-001	6.50912E-005	10	...........
	94	4.75	5.69643E-001	1.65170E-003	0.00000E+000	5.70000E-001	7.03262E-005	10	...........
	95	4.8	5.79623E-001	1.66261E-003	0.00000E+000	5.80000E-001	6.75920E-005	10	...........
	96	4.85	5.89444E-001	1.67555E-003	0.00000E+000	5.90000E-001	7.31271E-005	10	...........
	97	4.9	5.99543E-001	1.68476E-003	0.00000E+000	6.00000E-001	6.68918E-005	10	...........
	98	4.95	6.09638E-001	1.69598E-003	0.00000E+000	6.10000E-001	6.76921E-005	10	...........
	99	5	6.19555E-001	1.70377E-003	0.00000E+000	6.20000E-001	6.85590E-005	10	...........
	100	5.05	6.29431E-001	1.71254E-003	0.00000E+000	6.30000E-001	7.11265E-005	10	...........
	101	5.1	6.39495E-001	1.71758E-003	0.00000E+000	6.40000E-001	7.02595E-005	10	...........
	102	5.15	6.49591E-001	1.72326E-003	0.00000E+000	6.50000E-001	7.12932E-005	10	...........
	103	5.2	6.59539E-001	1.72582E-003	0.00000E+000	6.60000E-001	6.78921E-005	10	...........
	104	5.25	6.69433E-001	1.72903E-003	0.00000E+000	6.70000E-001	7.43942E-005	10	...........
	105	5.3	6.79400E-001	1.72859E-003	0.00000E+000	6.80000E-001	7.53278E-005	10	...........
	106	5.35	6.89622E-001	1.72902E-003	0.00000E+000	6.90000E-001	7.12599E-005	10	...........
	107	5.4	6.99497E-001	1.72644E-003	0.00000E+000	7.00000E-001	7.79953E-005	10	...........
	108	5.45	7.09430E-001	1.72461E-003	0.00000E+000	7.10000E-001	7.26603E-005	10	...........
	109	5.5	7.19408E-001	1.72090E-003	0.00000E+000	7.20000E-001	7.59614E-005	10	...........
	110	5.55	7.29502E-001	1.71870E-003	0.00000E+000	7.30000E-001	6.79922E-005	10	...........
	111	5.6	7.39511E-001	1.71467E-003	0.00000E+000	7.40000E-001	7.29938E-005	10	...........
	112	5.65	7.49420E-001	1.71220E-003	0.00000E+000	7.50000E-001	7.29938E-005	10	...........
	113	5.7	7.59065E-001	1.70920E-003	0.00000E+000	7.60000E-001	7.52611E-005	10	...........
	114	5.75	7.69606E-001	1.70814E-003	0.00000E+000	7.70000E-001	7.33939E-005	10	...........
	115	5.8	7.79428E-001	1.70743E-003	0.00000E+000	7.80000E-001	7.70950E-005	10	...........
	116	5.85	7.89426E-001	1.70970E-003	0.00000E+000	7.90000E-001	7.18600E-005	10	...........
	117	5.9	7.99391E-001	1.71229E-003	0.00000E+000	8.00000E-001	7.72951E-005	10	...........
	118	5.95	8.09579E-001	1.71917E-003	0.00000E+000	8.10000E-001	6.86257E-005	10	...........
	119	6	8.19448E-001	1.72663E-003	0.00000E+000	8.20000E-001	7.88289E-005	10	...........
	120	6.05	8.29413E-001	1.73984E-003	0.00000E+000	8.30000E-001	7.20601E-005	10	...........
	121	6.1	8.39065E-001	1.75520E-003	0.00000E+000	8.40000E-001	7.44275E-005	10	...........
	122	6.15	8.49537E-001	1.77605E-003	0.00000E+000	8.50000E-001	7.01595E-005	10	...........
	123	6.2	8.59435E-001	1.80135E-003	0.00000E+000	8.60000E-001	7.98626E-005	10	...........
	124	6.25	8.69402E-001	1.83420E-003	0.00000E+000	8.70000E-001	7.12932E-005	10	...........
	125	6.3	8.79377E-001	1.87352E-003	0.00000E+000	8.80000E-001	7.70950E-005	10	...........
	126	6.35	8.89584E-001	1.92238E-003	0.00000E+000	8.90000E-001	6.77254E-005	10	...........
	127	6.4	8.99407E-001	1.98010E-003	0.00000E+000	9.00000E-001	7.88956E-005	10	...........
	128	6.45	8.89673E-001	1.35838E-003	0.00000E+000	8.90000E-001	6.85257E-005	10	...........
	129	6.5	8.79456E-001	1.00655E-003	0.00000E+000	8.80000E-001	7.75285E-005	10	...........
	130	6.55	8.69493E-001	7.63461E-004	0.00000E+000	8.70000E-001	7.21601E-005	10	...........
	131	6.6	8.59527E-001	5.88144E-004	0.00000E+000	8.60000E-001	7.62615E-005	10	...........
	132	6.65	8.49612E-001	4.59628E-004	0.00000E+000	8.50000E-001	6.87257E-005	10	...........
	133	6.7	8.39157E-001	3.62800E-004	0.00000E+000	8.40000E-001	7.30604E-005	10	...........
	134	6.75	8.29494E-001	2.88577E-004	0.00000E+000	8.30000E-001	7.76619E-005	10	...........
	135	6.8	8.19543E-001	2.31706E-004	0.00000E+000	8.20000E-001	8.23300E-005	10	...........
	136	6.85	8.09671E-001	1.85944E-004	0.00000E+000	8.10000E-001	6.95260E-005	10	...........
	137	6.9	7.99523E-001	1.50354E-004	0.00000E+000	8.00000E-001	7.46276E-005	10	...........
	138	6.95	7.89513E-001	1.21229E-004	0.00000E+000	7.90000E-001	7.36940E-005	10	...........
	139	7	7.79535E-001	9.72412E-005	0.00000E+000	7.80000E-001	7.47276E-005	10	...........
	140	7.05	7.69703E-001	7.80427E-005	0.00000E+000	7.70000E-001	6.77587E-005	10	...........
	141	7.1	7.59141E-001	6.16633E-005	0.00000E+000	7.60000E-001	7.40274E-005	10	...........
	142	7.15	7.49516E-001	4.77735E-005	0.00000E+000	7.50000E-001	7.30604E-005	10	...........
	143	7.2	7.39609E-001	3.58617E-005	0.00000E+000	7.40000E-001	6.98261E-005	10	...........
	144	7.25	7.29611E-001	2.52531E-005	0.00000E+000	7.30000E-001	6.73586E-005	10	...........
	145	7.3	7.19527E-001	1.61864E-005	0.00000E+000	7.20000E-001	7.41608E-005	10	...........
	146	7.35	7.09517E-001	7.89270E-006	0.00000E+000	7.10000E-001	7.33272E-005	10	...........
	147	7.4	6.99597E-001	2.43867E-007	0.00000E+000	7.00000E-001	6.76587E-005	10	...........
	148	7.45	6.89707E-001	-6.38392E-006	0.00000E+000	6.90000E-001	6.50245E-005	10	...........
	149	7.5	6.79435E-001	-1.26703E-005	0.00000E+000	6.80000E-001	6.71586E-005	10	...........
	150	7.55	6.69519E-001	-1.87932E-005	0.00000E+000	6.70000E-001	7.34606E-005	10	...........
	151	7.6	6.59630E-001	-2.52149E-005	0.00000E+000	6.60000E-001	6.80922E-005	10	...........
	152	7.65	6.49692E-001	-3.05916E-005	0.00000E+000	6.50000E-001	7.00261E-005	10	...........
	153	7.7	6.39606E-001	-3.60362E-005	0.00000E+000	6.40000E-001	7.14599E-005	10	...........
	154	7.75	6.29520E-001	-4.13716E-005	0.00000E+000	6.30000E-001	7.34606E-005	10	...........
	155	7.8	6.19640E-001	-4.69950E-005	0.00000E+000	6.20000E-001	7.35606E-005	10	...........
	156	7.85	6.09722E-001	-5.26404E-005	0.00000E+000	6.10000E-001	7.20601E-005	10	...........
	157	7.9	5.99625E-001	-5.80391E-005	0.00000E+000	6.00000E-001	6.67251E-005	10	...........
	158	7.95	5.89533E-001	-6.33017E-005	0.00000E+000	5.90000E-001	7.14933E-005	10	...........
	159	8	5.79714E-001	-6.85123E-005	0.00000E+000	5.80000E-001	6.38575E-005	10	...........
	160	8.05	5.69718E-001	-7.37382E-005	0.00000E+000	5.70000E-001	6.79588E-005	10	...........
	161	8.1	5.59673E-001	-7.89882E-005	0.00000E+000	5.60000E-001	6.56914E-005	10	...........
	162	8.15	5.49634E-001	-8.40354E-005	0.00000E+000	5.50000E-001	7.07931E-005	10	...........
	163	8.2	5.39716E-001	-8.93320E-005	0.00000E+000	5.40000E-001	6.72586E-005	10	...........
	164	8.25	5.29741E-001	-9.50795E-005	0.00000E+000	5.30000E-001	7.14599E-005	10	...........
	165	8.3	5.19703E-001	-1.00583E-004	0.00000E+000	5.20000E-001	7.20935E-005	10	...........
	166	8.35	5.09527E-001	-1.06191E-004	0.00000E+000	5.10000E-001	7.40608E-005	10	...........
	167	8.4	4.99742E-001	-1.12098E-004	0.00000E+000	5.00000E-001	6.88924E-005	10	...........
	168	8.45	4.89765E-001	-1.18297E-004	0.00000E+000	4.90000E-001	7.11598E-005	10	...........
	169	8.5	4.79830E-001	-1.24468E-004	0.00000E+000	4.80000E-001	7.04263E-005	10	...........
	170	8.55	4.69725E-001	-1.31372E-004	0.00000E+000	4.70000E-001	7.20601E-005	10	...........
	171	8.6	4.59777E-001	-1.38160E-004	0.00000E+000	4.60000E-001	6.83923E-005	10	...........
	172	8.65	4.49788E-001	-1.45376E-004	0.00000E+000	4.50000E-001	7.26603E-005	10	...........
	173	8.7	4.39780E-001	-1.52882E-004	0.00000E+000	4.40000E-001	6.78588E-005	10	...........
	174	8.75	4.29528E-001	-1.60551E-004	0.00000E+000	4.30000E-001	7.22602E-005	10	...........
	175	8.8	4.19783E-001	-1.69029E-004	0.00000E+000	4.20000E-001	6.80922E-005	10	...........
	176	8.85	4.09799E-001	-1.77920E-004	0.00000E+000	4.10000E-001	7.32605E-005	10	...........
	177	8.9	3.99989E-001	-1.87153E-004	0.00000E+000	4.00000E-001	6.92926E-005	10	...........
	178	8.95	3.89800E-001	-1.96720E-004	0.00000E+000	3.90000E-001	7.69950E-005	10	...........
	179	9	3.79884E-001	-2.06861E-004	0.00000E+000	3.80000E-001	6.88258E-005	10	...........
	180	9.05	3.69850E-001	-2.17881E-004	0.00000E+000	3.70000E-001	7.60280E-005	10	...........
	181	9.1	3.60037E-001	-2.29905E-004	0.00000E+000	3.60000E-001	7.33605E-005	10	...........
	182	9.15	3.49530E-001	-2.42494E-004	0.00000E+000	3.50000E-001	7.47943E-005	10	...........
	183	9.2	3.39861E-001	-2.56076E-004	0.00000E+000	3.40000E-001	7.37273E-005	10	...........
	184	9.25	3.29928E-001	-2.70314E-004	0.00000E+000	3.30000E-001	7.27937E-005	10	...........
	185	9.3	3.19914E-001	-2.86542E-004	0.00000E+000	3.20000E-001	7.14266E-005	10	...........
	186	9.35	3.09806E-001	-3.03331E-004	0.00000E+000	3.10000E-001	7.77953E-005	10	...........
	187	9.4	2.99911E-001	-3.21399E-004	0.00000E+000	3.00000E-001	7.35939E-005	10	...........
	188	9.45	2.89926E-001	-3.41119E-004	0.00000E+000	2.90000E-001	7.59947E-005	10	...........
	189	9.5	2.80067E-001	-3.62808E-004	0.00000E+000	2.80000E-001	7.22602E-005	10	...........
	190	9.55	2.69692E-001	-3.85620E-004	0.00000E+000	2.70000E-001	7.13599E-005	10	...........
	191	9.6	2.59917E-001	-4.11367E-004	0.00000E+000	2.60000E-001	7.60947E-005	10	...........
	192	9.65	2.49960E-001	-4.38690E-004	0.00000E+000	2.50000E-001	7.53612E-005	10	...........
	193	9.7	2.39975E-001	-4.69278E-004	0.00000E+000	2.40000E-001	7.69283E-005	10	...........
	194	9.75	2.29849E-001	-5.02064E-004	0.00000E+000	2.30000E-001	7.79953E-005	10	...........
	195	9.8	2.19921E-001	-5.38066E-004	0.00000E+000	2.20000E-001	7.79287E-005	10	...........
	196	9.85	2.09947E-001	-5.77348E-004	0.00000E+000	2.10000E-001	7.85622E-005	10	...........
	197	9.9	2.00088E-001	-6.20797E-004	0.00000E+000	2.00000E-001	7.71284E-005	10	...........
	198	9.95	1.89944E-001	-6.68873E-004	0.00000E+000	1.90000E-001	7.06263E-005	10	...........
	199	10	1.79918E-001	-7.22655E-004	0.00000E+000	1.80000E-001	7.35939E-005	10	...........
	200	10.05	1.70041E-001	-7.81705E-004	0.00000E+000	1.70000E-001	6.98261E-005	10	...........
	201	10.1	1.60088E-001	-8.48280E-004	0.00000E+000	1.60000E-001	7.43275E-005	10	...........
	202	10.15	1.49968E-001	-9.21703E-004	0.00000E+000	1.50000E-001	7.13265E-005	10	...........
	203	10.2	1.39970E-001	-1.00382E-003	0.00000E+000	1.40000E-001	7.43608E-005	10	...........
	204	10.25	1.30062E-001	-1.09366E-003	0.00000E+000	1.30000E-001	6.89925E-005	10	...........
	205	10.3	1.20107E-001	-1.19458E-003	0.00000E+000	1.20000E-001	6.91592E-005	10	...........
	206	10.35	1.10040E-001	-1.30488E-003	0.00000E+000	1.10000E-001	7.20268E-005	10	...........
	207	10.4	9.99319E-002	-1.42576E-003	0.00000E+000	1.00000E-001	7.60280E-005	10	...........
	208	10.45	9.00395E-002	-1.55637E-003	0.00000E+000	9.00000E-002	7.12599E-005	10	...........
	209	10.5	8.01291E-002	-1.69669E-003	0.00000E+000	8.00000E-002	7.71951E-005	10	...........
	210	10.55	7.00762E-002	-1.84245E-003	0.00000E+000	7.00000E-002	7.33272E-005	10	...........
	211	10.6	6.00529E-002	-1.99216E-003	0.00000E+000	6.00000E-002	7.91957E-005	10	...........
	212	10.65	5.01411E-002	-2.13868E-003	0.00000E+000	5.00000E-002	7.16933E-005	10	...........
	213	10.7	4.01500E-002	-2.27861E-003	0.00000E+000	4.00000E-002	7.42608E-005	10	...........
	214	10.75	3.01072E-002	-2.40171E-003	0.00000E+000	3.00000E-002	6.81255E-005	10	...........
	215	10.8	1.99336E-002	-2.50155E-003	0.00000E+000	2.00000E-002	7.24269E-005	10	...........
	216	10.85	1.01135E-002	-2.56765E-003	0.00000E+000	1.00000E-002	7.17600E-005	10	...........
	217	10.9	1.42527E-004	-2.59425E-003	0.00000E+000	7.45058E-009	7.23936E-005	10	...........
	218	10.95	-9.68600E-003	-2.57359E-003	0.00000E+000	-9.99999E-003	6.83256E-005	10	...........
	219	11	-1.98010E-002	-2.50443E-003	0.00000E+000	-2.00000E-002	7.42942E-005	10	...........
	220	11.05	-2.97335E-002	-2.38633E-003	0.00000E+000	-3.00000E-002	7.02929E-005	10	...........
	221	11.1	-3.97708E-002	-2.22855E-003	0.00000E+000	-4.00000E-002	7.99626E-005	10	...........
	222	11.15	-4.96505E-002	-2.03931E-003	0.00000E+000	-5.00000E-002	7.34272E-005	10	...........
	223	11.2	-6.00365E-002	-1.83217E-003	0.00000E+000	-6.00000E-002	7.93624E-005	10	...........
	224	11.25	-6.97673E-002	-1.61888E-003	0.00000E+000	-7.00000E-002	7.61281E-005	10	...........
	225	11.3	-7.97106E-002	-1.41182E-003	0.00000E+000	-8.00000E-002	7.73618E-005	10	...........
	226	11.35	-8.97679E-002	-1.21788E-003	0.00000E+000	-9.00000E-002	7.50277E-005	10	...........
	227	11.4	-9.97863E-002	-1.04268E-003	0.00000E+000	-1.00000E-001	7.92291E-005	10	...........
	228	11.45	-1.09714E-001	-8.87324E-004	0.00000E+000	-1.10000E-001	7.41274E-005	10	...........
	229	11.5	-1.19745E-001	-7.52130E-004	0.00000E+000	-1.20000E-001	8.09296E-005	10	...........
	230	11.55	-1.29650E-001	-6.34862E-004	0.00000E+000	-1.30000E-001	7.29938E-005	10	...........
	231	11.6	-1.39877E-001	-5.33897E-004	0.00000E+000	-1.40000E-001	7.81287E-005	10	...........
	232	11.65	-1.49707E-001	-4.46206E-004	0.00000E+000	-1.50000E-001	7.36606E-005	10	...........
	233	11.7	-1.59682E-001	-3.71006E-004	0.00000E+000	-1.60000E-001	7.81954E-005	10	...........
	234	11.75	-1.69670E-001	-3.07267E-004	0.00000E+000	-1.70000E-001	7.16266E-005	10	...........
	235	11.8	-1.79746E-001	-2.53680E-004	0.00000E+000	-1.80000E-001	7.70950E-005	10	...........
	236	11.85	-1.89680E-001	-2.10484E-004	0.00000E+000	-1.90000E-001	7.03929E-005	10	...........
	237	11.9	-1.99680E-001	-1.75661E-004	0.00000E+000	-2.00000E-001	7.47943E-005	10	...........
	238	11.95	-2.09521E-001	-1.49404E-004	0.00000E+000	-2.10000E-001	6.16901E-005	10	...........
	239	12	-2.19700E-001	-1.29736E-004	0.00000E+000	-2.20000E-001	7.13265E-005	10	...........
	240	12.05	-2.29675E-001	-1.15927E-004	0.00000E+000	-2.30000E-001	7.29938E-005	10	...........
	241	12.1	-2.39593E-001	-1.06788E-004	0.00000E+000	-2.40000E-001	6.93593E-005	10	...........
	242	12.15	-2.49575E-001	-1.01826E-004	0.00000E+000	-2.50000E-001	7.05263E-005	10	...........
	243	12.2	-2.59676E-001	-9.92497E-005	0.00000E+000	-2.60000E-001	7.34939E-005	10	...........
	244	12.25	-2.69646E-001	-9.94711E-005	0.00000E+000	-2.70000E-001	7.08597E-005	10	...........
	245	12.3	-2.79581E-001	-1.01506E-004	0.00000E+000	-2.80000E-001	7.09598E-005	10	...........
	246	12.35	-2.89521E-001	-1.05423E-004	0.00000E+000	-2.90000E-001	6.96927E-005	10	...........
	247	12.4	-2.99623E-001	-1.10939E-004	0.00000E+000	-3.00000E-001	7.03596E-005	10	...........
	248	12.45	-3.09662E-001	-1.18878E-004	0.00000E+000	-3.10000E-001	7.17267E-005	10	...........
	249	12.5	-3.19605E-001	-1.29027E-004	0.00000E+000	-3.20000E-001	7.04263E-005	10	...........
	250	12.55	-3.29489E-001	-1.42529E-004	0.00000E+000	-3.30000E-001	7.12265E-005	10	...........
	251	12.6	-3.39604E-001	-1.59605E-004	0.00000E+000	-3.40000E-001	7.09264E-005	10	...........
	252	12.65	-3.49598E-001	-1.81526E-004	0.00000E+000	-3.50000E-001	7.12265E-005	10	...........
	253	12.7	-3.59519E-001	-2.08385E-004	0.00000E+000	-3.60000E-001	6.98928E-005	10	...........
	254	12.75	-3.69504E-001	-2.40241E-004	0.00000E+000	-3.70000E-001	7.12932E-005	10	...........
	255	12.8	-3.79578E-001	-2.80533E-004	0.00000E+000	-3.80000E-001	6.91258E-005	10	...........
	256	12.85	-3.89661E-001	-3.29717E-004	0.00000E+000	-3.90000E-001	7.40608E-005	10	...........
	257	12.9	-3.99539E-001	-3.96102E-004	0.00000E+000	-4.00000E-001	6.50579E-005	10	...........
	258	12.95	-4.09473E-001	-4.76994E-004	0.00000E+000	-4.10000E-001	7.11932E-005	10	...........
	259	13	-4.19474E-001	-5.77520E-004	0.00000E+000	-4.20000E-001	5.82891E-005	10	...........
	260	13.05	-4.29540E-001	-6.81641E-004	0.00000E+000	-4.30000E-001	6.90925E-005	10	...........
	261	13.1	-4.39444E-001	-7.82616E-004	0.00000E+000	-4.40000E-001	6.70585E-005	10	...........
	262	13.15	-4.49479E-001	-8.56804E-004	0.00000E+000	-4.50000E-001	7.05930E-005	10	...........
	263	13.2	-4.59452E-001	-9.05005E-004	0.00000E+000	-4.60000E-001	6.71252E-005	10	...........
	264	13.25	-4.69657E-001	-9.22677E-004	0.00000E+000	-4.70000E-001	7.22935E-005	10	...........
	265	13.3	-4.79472E-001	-9.31936E-004	0.00000E+000	-4.80000E-001	6.94259E-005	10	...........
	266	13.35	-4.89416E-001	-9.32212E-004	0.00000E+000	-4.90000E-001	7.19267E-005	10	...........
	267	13.4	-4.99463E-001	-9.41913E-004	0.00000E+000	-5.00000E-001	6.87591E-005	10	...........
	268	13.45	-5.09529E-001	-9.57396E-004	0.00000E+000	-5.10000E-001	6.92592E-005	10	...........
	269	13.5	-5.19409E-001	-9.93520E-004	0.00000E+000	-5.20000E-001	6.76921E-005	10	...........
	270	13.55	-5.29413E-001	-1.04515E-003	0.00000E+000	-5.30000E-001	7.62281E-005	10	...........
	271	13.6	-5.39350E-001	-1.12699E-003	0.00000E+000	-5.40000E-001	7.10931E-005	10	...........
	272	13.65	-5.49553E-001	-1.23284E-003	0.00000E+000	-5.50000E-001	7.24936E-005	10	...........
	273	13.7	-5.59365E-001	-1.37645E-003	0.00000E+000	-5.60000E-001	7.37273E-005	10	...........
	274	13.75	-5.69356E-001	-1.54604E-003	0.00000E+000	-5.70000E-001	7.40941E-005	10	...........
	275	13.8	-5.79376E-001	-1.74020E-003	0.00000E+000	-5.80000E-001	7.14599E-005	10	...........
	276	13.85	-5.89465E-001	-1.92140E-003	0.00000E+000	-5.90000E-001	7.79287E-005	10	...........
	277	13.9	-5.99322E-001	-2.06397E-003	0.00000E+000	-6.00000E-001	7.24936E-005	10	...........
	278	13.95	-6.09345E-001	-2.14976E-003	0.00000E+000	-6.10000E-001	7.54612E-005	10	...........
	279	14	-6.19160E-001	-2.19602E-003	0.00000E+000	-6.20000E-001	7.16600E-005	10	...........
	280	14.05	-6.29354E-001	-2.21620E-003	0.00000E+000	-6.30000E-001	8.08629E-005	10	...........
	281	14.1	-6.39307E-001	-2.24723E-003	0.00000E+000	-6.40000E-001	7.34606E-005	10	...........
	282	14.15	-6.49265E-001	-2.29595E-003	0.00000E+000	-6.50000E-001	7.72284E-005	10	...........
	283	14.2	-6.59237E-001	-2.38489E-003	0.00000E+000	-6.60000E-001	7.25603E-005	10	...........
	284	14.25	-6.69357E-001	-2.50783E-003	0.00000E+000	-6.70000E-001	7.92958E-005	10	...........
	285	14.3	-6.79321E-001	-2.68210E-003	0.00000E+000	-6.80000E-001	6.86590E-005	10	...........
	286	14.35	-6.89259E-001	-2.92028E-003	0.00000E+000	-6.90000E-001	7.37607E-005	10	...........
CURVE2	TABLE
	Pt	T	Vf	Im	Vu	Sig	Ach	IERange	Over
	#	s	V vs. Ref.	A	V	V	V	#	bits
	287	14.4	-6.84362E-001	-1.48863E-003	0.00000E+000	-6.85000E-001	6.80588E-005	10	...........
	288	14.45	-6.74552E-001	-2.55550E-004	0.00000E+000	-6.75000E-001	7.08264E-005	10	...........
	289	14.5	-6.64410E-001	3.94102E-004	0.00000E+000	-6.65000E-001	6.51246E-005	10	...........
	290	14.55	-6.54414E-001	7.74026E-004	0.00000E+000	-6.55000E-001	6.59582E-005	10	...........
	291	14.6	-6.44365E-001	9.93917E-004	0.00000E+000	-6.45000E-001	6.17235E-005	10	...........
	292	14.65	-6.34497E-001	1.13561E-003	0.00000E+000	-6.35000E-001	6.71252E-005	10	...........
	293	14.7	-6.24460E-001	1.23300E-003	0.00000E+000	-6.25000E-001	6.17902E-005	10	...........
	294	14.75	-6.14354E-001	1.31810E-003	0.00000E+000	-6.15000E-001	6.65250E-005	10	...........
	295	14.8	-6.04459E-001	1.39787E-003	0.00000E+000	-6.05000E-001	6.81922E-005	10	...........
	296	14.85	-5.94554E-001	1.48695E-003	0.00000E+000	-5.95000E-001	7.15933E-005	10	...........
	297	14.9	-5.84513E-001	1.57265E-003	0.00000E+000	-5.85000E-001	7.32605E-005	10	...........
	298	14.95	-5.74365E-001	1.65464E-003	0.00000E+000	-5.75000E-001	6.50245E-005	10	...........
	299	15	-5.64455E-001	1.68977E-003	0.00000E+000	-5.65000E-001	6.84923E-005	10	...........
	300	15.05	-5.54544E-001	1.64207E-003	0.00000E+000	-5.55000E-001	6.71919E-005	10	...........
	301	15.1	-5.44610E-001	1.49813E-003	0.00000E+000	-5.45000E-001	7.24269E-005	10	...........
	302	15.15	-5.34375E-001	1.33402E-003	0.00000E+000	-5.35000E-001	6.86590E-005	10	...........
	303	15.2	-5.24516E-001	1.20111E-003	0.00000E+000	-5.25000E-001	7.36606E-005	10	...........
	304	15.25	-5.14553E-001	1.12350E-003	0.00000E+000	-5.15000E-001	7.45276E-005	10	...........
	305	15.3	-5.04544E-001	1.08319E-003	0.00000E+000	-5.05000E-001	7.79953E-005	10	...........
	306	15.35	-4.94401E-001	1.07754E-003	0.00000E+000	-4.95000E-001	6.70585E-005	10	...........
	307	15.4	-4.84509E-001	1.07829E-003	0.00000E+000	-4.85000E-001	7.57280E-005	10	...........
	308	15.45	-4.74584E-001	1.08100E-003	0.00000E+000	-4.75000E-001	7.16600E-005	10	...........
	309	15.5	-4.64600E-001	1.08738E-003	0.00000E+000	-4.65000E-001	7.20935E-005	10	...........
	310	15.55	-4.54454E-001	1.12233E-003	0.00000E+000	-4.55000E-001	6.67918E-005	10	...........
	311	15.6	-4.44509E-001	1.17773E-003	0.00000E+000	-4.45000E-001	7.34939E-005	10	...........
	312	15.65	-4.34564E-001	1.23954E-003	0.00000E+000	-4.35000E-001	7.27270E-005	10	...........
	313	15.7	-4.24622E-001	1.24965E-003	0.00000E+000	-4.25000E-001	7.45276E-005	10	...........
	314	15.75	-4.14382E-001	1.16029E-003	0.00000E+000	-4.15000E-001	6.79922E-005	10	...........
	315	15.8	-4.04582E-001	9.62510E-004	0.00000E+000	-4.05000E-001	7.84288E-005	10	...........
	316	15.85	-3.94581E-001	7.58276E-004	0.00000E+000	-3.95000E-001	7.44942E-005	10	...........
	317	15.9	-3.84704E-001	6.06614E-004	0.00000E+000	-3.85000E-001	7.79620E-005	10	...........
	318	15.95	-3.74583E-001	5.15135E-004	0.00000E+000	-3.75000E-001	6.91592E-005	10	...........
	319	16	-3.64585E-001	4.53609E-004	0.00000E+000	-3.65000E-001	7.45943E-005	10	...........
	320	16.05	-3.54601E-001	4.11808E-004	0.00000E+000	-3.55000E-001	7.54612E-005	10	...........
	321	16.1	-3.44802E-001	3.77569E-004	0.00000E+000	-3.45000E-001	7.60614E-005	10	...........
	322	16.15	-3.34502E-001	3.50176E-004	0.00000E+000	-3.35000E-001	6.99261E-005	10	...........
	323	16.2	-3.24613E-001	3.27080E-004	0.00000E+000	-3.25000E-001	7.70284E-005	10	...........
	324	16.25	-3.14623E-001	3.11239E-004	0.00000E+000	-3.15000E-001	7.08931E-005	10	...........
	325	16.3	-3.04778E-001	3.01486E-004	0.00000E+000	-3.05000E-001	7.71951E-005	10	...........
	326	16.35	-2.94678E-001	2.98408E-004	0.00000E+000	-2.95000E-001	6.98261E-005	10	...........
	327	16.4	-2.84660E-001	3.02159E-004	0.00000E+000	-2.85000E-001	7.55946E-005	10	...........
	328	16.45	-2.74668E-001	3.10145E-004	0.00000E+000	-2.75000E-001	7.13599E-005	10	...........
	329	16.5	-2.64948E-001	3.23935E-004	0.00000E+000	-2.65000E-001	7.48277E-005	10	...........
	330	16.55	-2.54639E-001	3.39633E-004	0.00000E+000	-2.55000E-001	6.89258E-005	10	...........
	331	16.6	-2.44717E-001	3.59460E-004	0.00000E+000	-2.45000E-001	7.27270E-005	10	...........
	332	16.65	-2.34676E-001	3.80884E-004	0.00000E+000	-2.35000E-001	6.86257E-005	10	...........
	333	16.7	-2.24776E-001	4.04721E-004	0.00000E+000	-2.25000E-001	7.98959E-005	10	...........
	334	16.75	-2.14673E-001	4.28926E-004	0.00000E+000	-2.15000E-001	6.68251E-005	10	...........
	335	16.8	-2.04737E-001	4.54108E-004	0.00000E+000	-2.05000E-001	7.30604E-005	10	...........
	336	16.85	-1.94787E-001	4.77698E-004	0.00000E+000	-1.95000E-001	6.50245E-005	10	...........
	337	16.9	-1.84933E-001	5.00909E-004	0.00000E+000	-1.85000E-001	7.49277E-005	10	...........
	338	16.95	-1.74819E-001	5.20815E-004	0.00000E+000	-1.75000E-001	6.12567E-005	10	...........
	339	17	-1.64752E-001	5.39092E-004	0.00000E+000	-1.65000E-001	6.90592E-005	10	...........
	340	17.05	-1.54769E-001	5.53270E-004	0.00000E+000	-1.55000E-001	6.38242E-005	10	...........
	341	17.1	-1.44842E-001	5.65101E-004	0.00000E+000	-1.45000E-001	6.80588E-005	10	...........
	342	17.15	-1.34821E-001	5.71798E-004	0.00000E+000	-1.35000E-001	6.48245E-005	10	...........
	343	17.2	-1.24752E-001	5.75188E-004	0.00000E+000	-1.25000E-001	7.17600E-005	10	...........
	344	17.25	-1.14861E-001	5.74780E-004	0.00000E+000	-1.15000E-001	6.74920E-005	10	...........
	345	17.3	-1.04953E-001	5.72110E-004	0.00000E+000	-1.05000E-001	7.04930E-005	10	...........
	346	17.35	-9.48641E-002	5.65719E-004	0.00000E+000	-9.50000E-002	6.72586E-005	10	...........
	347	17.4	-8.47721E-002	5.57280E-004	0.00000E+000	-8.50000E-002	6.90592E-005	10	...........
	348	17.45	-7.48358E-002	5.46067E-004	0.00000E+000	-7.50000E-002	7.00928E-005	10	...........
	349	17.5	-6.48904E-002	5.34019E-004	0.00000E+000	-6.50000E-002	6.68251E-005	10	...........
	350	17.55	-5.49065E-002	5.19737E-004	0.00000E+000	-5.50000E-002	6.66250E-005	10	...........
	351	17.6	-4.48069E-002	5.05704E-004	0.00000E+000	-4.50000E-002	6.67918E-005	10	...........
	352	17.65	-3.48434E-002	4.89959E-004	0.00000E+000	-3.50000E-002	7.33272E-005	10	...........
	353	17.7	-2.49550E-002	4.75016E-004	0.00000E+000	-2.50000E-002	7.37273E-005	10	...........
	354	17.75	-1.49559E-002	4.59103E-004	0.00000E+000	-1.50000E-002	6.82256E-005	10	...........
	355	17.8	-4.76167E-003	4.45206E-004	0.00000E+000	-4.99999E-003	6.62583E-005	10	...........
	356	17.85	5.04522E-003	4.30712E-004	0.00000E+000	5.00001E-003	7.77619E-005	10	...........
	357	17.9	1.50254E-002	4.18828E-004	0.00000E+000	1.50000E-002	7.47610E-005	10	...........
	358	17.95	2.48783E-002	4.07585E-004	0.00000E+000	2.50000E-002	7.58613E-005	10	...........
	359	18	3.50901E-002	3.98952E-004	0.00000E+000	3.50000E-002	7.25936E-005	10	...........
	360	18.05	4.50544E-002	3.91169E-004	0.00000E+000	4.50000E-002	7.25603E-005	10	...........
	361	18.1	5.50187E-002	3.86816E-004	0.00000E+000	5.50000E-002	7.25936E-005	10	...........
	362	18.15	6.47354E-002	3.84356E-004	0.00000E+000	6.50000E-002	7.16600E-005	10	...........
	363	18.2	7.51928E-002	3.84598E-004	0.00000E+000	7.50000E-002	6.96593E-005	10	...........
	364	18.25	8.50181E-002	3.87369E-004	0.00000E+000	8.50000E-002	7.68616E-005	10	...........
	365	18.3	9.50023E-002	3.93979E-004	0.00000E+000	9.50000E-002	6.78254E-005	10	...........
	366	18.35	1.04831E-001	4.03260E-004	0.00000E+000	1.05000E-001	6.64250E-005	10	...........
	367	18.4	1.14952E-001	4.16604E-004	0.00000E+000	1.15000E-001	7.03596E-005	10	...........
	368	18.45	1.24988E-001	4.34775E-004	0.00000E+000	1.25000E-001	6.87591E-005	10	...........
	369	18.5	1.34956E-001	4.58548E-004	0.00000E+000	1.35000E-001	6.70919E-005	10	...........
	370	18.55	1.44644E-001	4.89385E-004	0.00000E+000	1.45000E-001	6.83923E-005	10	...........
	371	18.6	1.55098E-001	5.26335E-004	0.00000E+000	1.55000E-001	6.49579E-005	10	...........
	372	18.65	1.64940E-001	5.69435E-004	0.00000E+000	1.65000E-001	7.14266E-005	10	...........
	373	18.7	1.74953E-001	6.15040E-004	0.00000E+000	1.75000E-001	6.58248E-005	10	...........
	374	18.75	1.84833E-001	6.61688E-004	0.00000E+000	1.85000E-001	7.03596E-005	10	...........
	375	18.8	1.95053E-001	7.05995E-004	0.00000E+000	1.95000E-001	6.68251E-005	10	...........
	376	18.85	2.04881E-001	7.50351E-004	0.00000E+000	2.05000E-001	7.15266E-005	10	...........
	377	18.9	2.14883E-001	7.94607E-004	0.00000E+000	2.15000E-001	7.08597E-005	10	...........
	378	18.95	2.24642E-001	8.41780E-004	0.00000E+000	2.25000E-001	6.94926E-005	10	...........
	379	19	2.34873E-001	8.88421E-004	0.00000E+000	2.35000E-001	6.36908E-005	10	...........
	380	19.05	2.44883E-001	9.37457E-004	0.00000E+000	2.45000E-001	6.99594E-005	10	...........
	381	19.1	2.54854E-001	9.81551E-004	0.00000E+000	2.55000E-001	6.73586E-005	10	...........
	382	19.15	2.64779E-001	1.02283E-003	0.00000E+000	2.65000E-001	7.01929E-005	10	...........
	383	19.2	2.74837E-001	1.05566E-003	0.00000E+000	2.75000E-001	6.59248E-005	10	...........
	384	19.25	2.84853E-001	1.08386E-003	0.00000E+000	2.85000E-001	6.90258E-005	10	...........
	385	19.3	2.94792E-001	1.10450E-003	0.00000E+000	2.95000E-001	6.61916E-005	10	...........
	386	19.35	3.04640E-001	1.12288E-003	0.00000E+000	3.05000E-001	7.06263E-005	10	...........
	387	19.4	3.14803E-001	1.13642E-003	0.00000E+000	3.15000E-001	6.76587E-005	10	...........
	388	19.45	3.24844E-001	1.15012E-003	0.00000E+000	3.25000E-001	6.28572E-005	10	...........
	389	19.5	3.34802E-001	1.16047E-003	0.00000E+000	3.35000E-001	6.40909E-005	10	...........
	390	19.55	3.44713E-001	1.17228E-003	0.00000E+000	3.45000E-001	6.93259E-005	10	...........
	391	19.6	3.54738E-001	1.18372E-003	0.00000E+000	3.55000E-001	6.55914E-005	10	...........
	392	19.65	3.64836E-001	1.19680E-003	0.00000E+000	3.65000E-001	6.42576E-005	10	...........
	393	19.7	3.74797E-001	1.20796E-003	0.00000E+000	3.75000E-001	6.32240E-005	10	...........
	394	19.75	3.84640E-001	1.21807E-003	0.00000E+000	3.85000E-001	7.04930E-005	10	...........
	395	19.8	3.94705E-001	1.22284E-003	0.00000E+000	3.95000E-001	6.65584E-005	10	...........
	396	19.85	4.04836E-001	1.22595E-003	0.00000E+000	4.05000E-001	6.33240E-005	10	...........
	397	19.9	4.14722E-001	1.22289E-003	0.00000E+000	4.15000E-001	6.74920E-005	10	...........
	398	19.95	4.24632E-001	1.21853E-003	0.00000E+000	4.25000E-001	7.02929E-005	10	...........
[...]
	2970	148.55	7.04508E-001	1.23198E-003	0.00000E+000	7.05000E-001	6.42910E-005	10	...........
	2971	148.6	7.14252E-001	1.22218E-003	0.00000E+000	7.15000E-001	6.72586E-005	10	...........
	2972	148.65	7.24495E-001	1.21375E-003	0.00000E+000	7.25000E-001	5.70220E-005	10	...........
	2973	148.7	7.34506E-001	1.20338E-003	0.00000E+000	7.35000E-001	6.71252E-005	10	...........
	2974	148.75	7.44472E-001	1.19624E-003	0.00000E+000	7.45000E-001	6.39242E-005	10	...........
	2975	148.8	7.54412E-001	1.18747E-003	0.00000E+000	7.55000E-001	6.66584E-005	10	...........
	2976	148.85	7.64495E-001	1.18379E-003	0.00000E+000	7.65000E-001	5.90560E-005	10	...........
	2977	148.9	7.74481E-001	1.17939E-003	0.00000E+000	7.75000E-001	6.77254E-005	10	...........
	2978	148.95	7.84483E-001	1.18039E-003	0.00000E+000	7.85000E-001	5.99563E-005	10	...........
	2979	149	7.94304E-001	1.18322E-003	0.00000E+000	7.95000E-001	6.20236E-005	10	...........
	2980	149.05	8.04397E-001	1.19184E-003	0.00000E+000	8.05000E-001	5.67219E-005	10	...........
	2981	149.1	8.14462E-001	1.20303E-003	0.00000E+000	8.15000E-001	6.18569E-005	10	...........
	2982	149.15	8.24444E-001	1.22209E-003	0.00000E+000	8.25000E-001	6.03564E-005	10	...........
	2983	149.2	8.34234E-001	1.24555E-003	0.00000E+000	8.35000E-001	6.90925E-005	10	...........
	2984	149.25	8.44465E-001	1.27839E-003	0.00000E+000	8.45000E-001	6.37241E-005	10	...........
	2985	149.3	8.54447E-001	1.31637E-003	0.00000E+000	8.55000E-001	6.33240E-005	10	...........
	2986	149.35	8.64430E-001	1.36668E-003	0.00000E+000	8.65000E-001	6.10566E-005	10	...........
	2987	149.4	8.74242E-001	1.42550E-003	0.00000E+000	8.75000E-001	6.88258E-005	10	...........
	2988	149.45	8.84500E-001	1.49890E-003	0.00000E+000	8.85000E-001	6.26905E-005	10	...........
	2989	149.5	8.94443E-001	1.58335E-003	0.00000E+000	8.95000E-001	6.58248E-005	10	...........
	2990	149.55	8.84587E-001	1.00438E-003	0.00000E+000	8.85000E-001	6.91258E-005	10	...........
	2991	149.6	8.74326E-001	7.09093E-004	0.00000E+000	8.75000E-001	6.76921E-005	10	...........
	2992	149.65	8.64521E-001	5.15429E-004	0.00000E+000	8.65000E-001	6.14901E-005	10	...........
	2993	149.7	8.54522E-001	3.79318E-004	0.00000E+000	8.55000E-001	6.52913E-005	10	...........
	2994	149.75	8.44549E-001	2.84699E-004	0.00000E+000	8.45000E-001	6.27238E-005	10	...........
	2995	149.8	8.34321E-001	2.13828E-004	0.00000E+000	8.35000E-001	7.03596E-005	10	...........
	2996	149.85	8.24535E-001	1.64301E-004	0.00000E+000	8.25000E-001	6.50912E-005	10	...........
	2997	149.9	8.14547E-001	1.23928E-004	0.00000E+000	8.15000E-001	6.70585E-005	10	...........
	2998	149.95	8.04516E-001	9.60067E-005	0.00000E+000	8.05000E-001	6.15234E-005	10	...........
	2999	150	7.94397E-001	7.14016E-005	0.00000E+000	7.95000E-001	6.68251E-005	10	...........
	3000	150.05	7.84573E-001	5.52049E-005	0.00000E+000	7.85000E-001	5.87225E-005	10	...........
	3001	150.1	7.74575E-001	3.96738E-005	0.00000E+000	7.75000E-001	6.26571E-005	10	...........
	3002	150.15	7.64620E-001	2.97841E-005	0.00000E+000	7.65000E-001	6.19236E-005	10	...........
	3003	150.2	7.54502E-001	1.87874E-005	0.00000E+000	7.55000E-001	6.35908E-005	10	...........
	3004	150.25	7.44564E-001	1.27458E-005	0.00000E+000	7.45000E-001	5.86892E-005	10	...........
	3005	150.3	7.34602E-001	4.19400E-006	0.00000E+000	7.35000E-001	5.99563E-005	10	...........
	3006	150.35	7.24586E-001	-3.60356E-007	0.00000E+000	7.25000E-001	5.88226E-005	10	...........
	3007	150.4	7.14357E-001	-7.57170E-006	0.00000E+000	7.15000E-001	6.56247E-005	10	...........
	3008	150.45	7.04606E-001	-1.13431E-005	0.00000E+000	7.05000E-001	5.99896E-005	10	...........
	3009	150.5	6.94619E-001	-1.80609E-005	0.00000E+000	6.95000E-001	6.71252E-005	10	...........
	3010	150.55	6.84733E-001	-2.09967E-005	0.00000E+000	6.85000E-001	6.06231E-005	10	...........
	3011	150.6	6.74596E-001	-2.80753E-005	0.00000E+000	6.75000E-001	6.52913E-005	10	...........
	3012	150.65	6.64634E-001	-3.08143E-005	0.00000E+000	6.65000E-001	6.28572E-005	10	...........
	3013	150.7	6.54668E-001	-3.75021E-005	0.00000E+000	6.55000E-001	6.51246E-005	10	...........
	3014	150.75	6.44680E-001	-4.06019E-005	0.00000E+000	6.45000E-001	5.91227E-005	10	...........
	3015	150.8	6.34330E-001	-4.75098E-005	0.00000E+000	6.35000E-001	6.44244E-005	10	...........
	3016	150.85	6.24660E-001	-5.08624E-005	0.00000E+000	6.25000E-001	6.25238E-005	10	...........
	3017	150.9	6.14660E-001	-5.83498E-005	0.00000E+000	6.15000E-001	6.74920E-005	10	...........
	3018	150.95	6.04862E-001	-6.16684E-005	0.00000E+000	6.05000E-001	5.35209E-005	10	...........
	3019	151	5.94669E-001	-6.88978E-005	0.00000E+000	5.95000E-001	6.43577E-005	10	...........
	3020	151.05	5.84707E-001	-7.21770E-005	0.00000E+000	5.85000E-001	6.43577E-005	10	...........
	3021	151.1	5.74695E-001	-7.96764E-005	0.00000E+000	5.75000E-001	6.88924E-005	10	...........
	3022	151.15	5.64867E-001	-8.32031E-005	0.00000E+000	5.65000E-001	6.41909E-005	10	...........
	3023	151.2	5.54338E-001	-9.05458E-005	0.00000E+000	5.55000E-001	6.51246E-005	10	...........
	3024	151.25	5.44684E-001	-9.45626E-005	0.00000E+000	5.45000E-001	6.58915E-005	10	...........
	3025	151.3	5.34767E-001	-1.02388E-004	0.00000E+000	5.35000E-001	6.51579E-005	10	...........
	3026	151.35	5.24735E-001	-1.06621E-004	0.00000E+000	5.25000E-001	6.54247E-005	10	...........
	3027	151.4	5.14657E-001	-1.14660E-004	0.00000E+000	5.15000E-001	7.07264E-005	10	...........
	3028	151.45	5.04717E-001	-1.18760E-004	0.00000E+000	5.05000E-001	6.53246E-005	10	...........
	3029	151.5	4.94752E-001	-1.27112E-004	0.00000E+000	4.95000E-001	6.66917E-005	10	...........
	3030	151.55	4.84878E-001	-1.31751E-004	0.00000E+000	4.85000E-001	6.17235E-005	10	...........
	3031	151.6	4.74639E-001	-1.40628E-004	0.00000E+000	4.75000E-001	6.45244E-005	10	...........
	3032	151.65	4.64721E-001	-1.45235E-004	0.00000E+000	4.65000E-001	6.23904E-005	10	...........
	3033	151.7	4.54804E-001	-1.54936E-004	0.00000E+000	4.55000E-001	6.38909E-005	10	...........
	3034	151.75	4.44830E-001	-1.60282E-004	0.00000E+000	4.45000E-001	6.20569E-005	10	...........
	3035	151.8	4.34737E-001	-1.70213E-004	0.00000E+000	4.35000E-001	6.12233E-005	10	...........
	3036	151.85	4.24723E-001	-1.76031E-004	0.00000E+000	4.25000E-001	6.63583E-005	10	...........
	3037	151.9	4.14797E-001	-1.87358E-004	0.00000E+000	4.15000E-001	6.57581E-005	10	...........
	3038	151.95	4.04909E-001	-1.94031E-004	0.00000E+000	4.05000E-001	6.09566E-005	10	...........
	3039	152	3.94777E-001	-2.06150E-004	0.00000E+000	3.95000E-001	5.61551E-005	10	...........
	3040	152.05	3.84725E-001	-2.14083E-004	0.00000E+000	3.85000E-001	6.36574E-005	10	...........
	3041	152.1	3.74884E-001	-2.27023E-004	0.00000E+000	3.75000E-001	5.29207E-005	10	...........
	3042	152.15	3.64903E-001	-2.36963E-004	0.00000E+000	3.65000E-001	5.92227E-005	10	...........
	3043	152.2	3.54821E-001	-2.52060E-004	0.00000E+000	3.55000E-001	5.71554E-005	10	...........
	3044	152.25	3.44801E-001	-2.63493E-004	0.00000E+000	3.45000E-001	5.97562E-005	10	...........
	3045	152.3	3.34888E-001	-2.80582E-004	0.00000E+000	3.35000E-001	5.78222E-005	10	...........
	3046	152.35	3.24925E-001	-2.93991E-004	0.00000E+000	3.25000E-001	6.33907E-005	10	...........
	3047	152.4	3.14881E-001	-3.13114E-004	0.00000E+000	3.15000E-001	5.84558E-005	10	...........
	3048	152.45	3.04729E-001	-3.29362E-004	0.00000E+000	3.05000E-001	6.59915E-005	10	...........
	3049	152.5	2.94899E-001	-3.51502E-004	0.00000E+000	2.95000E-001	6.06231E-005	10	...........
	3050	152.55	2.84953E-001	-3.71288E-004	0.00000E+000	2.85000E-001	6.56914E-005	10	...........
	3051	152.6	2.74951E-001	-3.97741E-004	0.00000E+000	2.75000E-001	6.01563E-005	10	...........
	3052	152.65	2.64888E-001	-4.21256E-004	0.00000E+000	2.65000E-001	6.69918E-005	10	...........
	3053	152.7	2.54941E-001	-4.51881E-004	0.00000E+000	2.55000E-001	6.09232E-005	10	...........
	3054	152.75	2.44943E-001	-4.80939E-004	0.00000E+000	2.45000E-001	6.39242E-005	10	...........
	3055	152.8	2.34913E-001	-5.17293E-004	0.00000E+000	2.35000E-001	6.09899E-005	10	...........
	3056	152.85	2.24733E-001	-5.52672E-004	0.00000E+000	2.25000E-001	6.73586E-005	10	...........
	3057	152.9	2.14938E-001	-5.96556E-004	0.00000E+000	2.15000E-001	6.20903E-005	10	...........
	3058	152.95	2.04955E-001	-6.40820E-004	0.00000E+000	2.05000E-001	6.68251E-005	10	...........
	3059	153	1.95107E-001	-6.94376E-004	0.00000E+000	1.95000E-001	5.87225E-005	10	...........
	3060	153.05	1.84948E-001	-7.50152E-004	0.00000E+000	1.85000E-001	6.58581E-005	10	...........
	3061	153.1	1.75052E-001	-8.16627E-004	0.00000E+000	1.75000E-001	6.40909E-005	10	...........
	3062	153.15	1.65027E-001	-8.86914E-004	0.00000E+000	1.65000E-001	7.09931E-005	10	...........
	3063	153.2	1.55193E-001	-9.69845E-004	0.00000E+000	1.55000E-001	6.24571E-005	10	...........
	3064	153.25	1.44736E-001	-1.05880E-003	0.00000E+000	1.45000E-001	6.71586E-005	10	...........
	3065	153.3	1.35040E-001	-1.16319E-003	0.00000E+000	1.35000E-001	6.39909E-005	10	...........
	3066	153.35	1.25092E-001	-1.27487E-003	0.00000E+000	1.25000E-001	7.14266E-005	10	...........
	3067	153.4	1.15055E-001	-1.40494E-003	0.00000E+000	1.15000E-001	6.25238E-005	10	...........
	3068	153.45	1.04964E-001	-1.54365E-003	0.00000E+000	1.05000E-001	6.66584E-005	10	...........
	3069	153.5	9.51030E-002	-1.69937E-003	0.00000E+000	9.50000E-002	6.55581E-005	10	...........
	3070	153.55	8.51102E-002	-1.86418E-003	0.00000E+000	8.50000E-002	6.68251E-005	10	...........
	3071	153.6	7.52680E-002	-2.04331E-003	0.00000E+000	7.50000E-002	6.08566E-005	10	...........
	3072	153.65	6.48618E-002	-2.22397E-003	0.00000E+000	6.50000E-002	6.70252E-005	10	...........
	3073	153.7	5.51189E-002	-2.40931E-003	0.00000E+000	5.50000E-002	6.32907E-005	10	...........
	3074	153.75	4.51480E-002	-2.58369E-003	0.00000E+000	4.50000E-002	6.90258E-005	10	...........
	3075	153.8	3.51807E-002	-2.74473E-003	0.00000E+000	3.50000E-002	6.51579E-005	10	...........
	3076	153.85	2.50368E-002	-2.87165E-003	0.00000E+000	2.50000E-002	6.93926E-005	10	...........
	3077	153.9	1.51236E-002	-2.96032E-003	0.00000E+000	1.50000E-002	6.51579E-005	10	...........
	3078	153.95	5.13171E-003	-2.99318E-003	0.00000E+000	5.00001E-003	6.97594E-005	10	...........
	3079	154	-4.70178E-003	-2.96601E-003	0.00000E+000	-4.99999E-003	6.34240E-005	10	...........
	3080	154.05	-1.48267E-002	-2.86874E-003	0.00000E+000	-1.50000E-002	6.35908E-005	10	...........
	3081	154.1	-2.48692E-002	-2.70869E-003	0.00000E+000	-2.50000E-002	6.78921E-005	10	...........
	3082	154.15	-3.47547E-002	-2.48757E-003	0.00000E+000	-3.50000E-002	6.28905E-005	10	...........
	3083	154.2	-4.47211E-002	-2.22870E-003	0.00000E+000	-4.50000E-002	6.52246E-005	10	...........
	3084	154.25	-5.47972E-002	-1.94444E-003	0.00000E+000	-5.50000E-002	6.31239E-005	10	...........
	3085	154.3	-6.47817E-002	-1.66329E-003	0.00000E+000	-6.50000E-002	5.93894E-005	10	...........
	3086	154.35	-7.47536E-002	-1.39364E-003	0.00000E+000	-7.50000E-002	6.41576E-005	10	...........
	3087	154.4	-8.47382E-002	-1.15497E-003	0.00000E+000	-8.50000E-002	6.78588E-005	10	...........
	3088	154.45	-9.47718E-002	-9.44313E-004	0.00000E+000	-9.50000E-002	6.60249E-005	10	...........
	3089	154.5	-1.04867E-001	-7.68730E-004	0.00000E+000	-1.05000E-001	6.96927E-005	10	...........
	3090	154.55	-1.14798E-001	-6.18396E-004	0.00000E+000	-1.15000E-001	6.37241E-005	10	...........
	3091	154.6	-1.24706E-001	-4.95846E-004	0.00000E+000	-1.25000E-001	6.40576E-005	10	...........
	3092	154.65	-1.34720E-001	-3.90027E-004	0.00000E+000	-1.35000E-001	6.12233E-005	10	...........
	3093	154.7	-1.44739E-001	-3.05166E-004	0.00000E+000	-1.45000E-001	6.50245E-005	10	...........
	3094	154.75	-1.54689E-001	-2.30760E-004	0.00000E+000	-1.55000E-001	6.46578E-005	10	...........
	3095	154.8	-1.64682E-001	-1.74343E-004	0.00000E+000	-1.65000E-001	6.69585E-005	10	...........
	3096	154.85	-1.74740E-001	-1.26228E-004	0.00000E+000	-1.75000E-001	6.22237E-005	10	...........
	3097	154.9	-1.84857E-001	-9.20457E-005	0.00000E+000	-1.85000E-001	6.84256E-005	10	...........
	3098	154.95	-1.94685E-001	-6.32897E-005	0.00000E+000	-1.95000E-001	6.09566E-005	10	...........
	3099	155	-2.04643E-001	-4.75205E-005	0.00000E+000	-2.05000E-001	6.09899E-005	10	...........
	3100	155.05	-2.14573E-001	-3.46924E-005	0.00000E+000	-2.15000E-001	5.54548E-005	10	...........
	3101	155.1	-2.24667E-001	-3.25336E-005	0.00000E+000	-2.25000E-001	6.01563E-005	10	...........
	3102	155.15	-2.34572E-001	-2.92024E-005	0.00000E+000	-2.35000E-001	6.44577E-005	10	...........
	3103	155.2	-2.44614E-001	-3.38588E-005	0.00000E+000	-2.45000E-001	6.94259E-005	10	...........
	3104	155.25	-2.54515E-001	-3.66912E-005	0.00000E+000	-2.55000E-001	6.23570E-005	10	...........
	3105	155.3	-2.64855E-001	-4.52883E-005	0.00000E+000	-2.65000E-001	6.98594E-005	10	...........
	3106	155.35	-2.74588E-001	-5.15327E-005	0.00000E+000	-2.75000E-001	6.38575E-005	10	...........
	3107	155.4	-2.84552E-001	-6.28328E-005	0.00000E+000	-2.85000E-001	6.49245E-005	10	...........
	3108	155.45	-2.94607E-001	-7.10265E-005	0.00000E+000	-2.95000E-001	6.12233E-005	10	...........
	3109	155.5	-3.04620E-001	-8.56273E-005	0.00000E+000	-3.05000E-001	6.42243E-005	10	...........
	3110	155.55	-3.14523E-001	-9.75357E-005	0.00000E+000	-3.15000E-001	6.18902E-005	10	...........
	3111	155.6	-3.24543E-001	-1.18239E-004	0.00000E+000	-3.25000E-001	6.80588E-005	10	...........
	3112	155.65	-3.34454E-001	-1.36795E-004	0.00000E+000	-3.35000E-001	6.41909E-005	10	...........
	3113	155.7	-3.44667E-001	-1.65153E-004	0.00000E+000	-3.45000E-001	7.23269E-005	10	...........
	3114	155.75	-3.54512E-001	-1.91120E-004	0.00000E+000	-3.55000E-001	6.61582E-005	10	...........
	3115	155.8	-3.64507E-001	-2.30314E-004	0.00000E+000	-3.65000E-001	6.86924E-005	10	...........
	3116	155.85	-3.74520E-001	-2.70720E-004	0.00000E+000	-3.75000E-001	6.85257E-005	10	...........
	3117	155.9	-3.84585E-001	-3.32305E-004	0.00000E+000	-3.85000E-001	6.84256E-005	10	...........
	3118	155.95	-3.94493E-001	-4.06177E-004	0.00000E+000	-3.95000E-001	6.71919E-005	10	...........
	3119	156	-4.04506E-001	-5.15306E-004	0.00000E+000	-4.05000E-001	6.91925E-005	10	...........
	3120	156.05	-4.14327E-001	-6.47865E-004	0.00000E+000	-4.15000E-001	5.79556E-005	10	...........
	3121	156.1	-4.24522E-001	-8.11477E-004	0.00000E+000	-4.25000E-001	6.48245E-005	10	...........
	3122	156.15	-4.34490E-001	-9.61679E-004	0.00000E+000	-4.35000E-001	6.83256E-005	10	...........
	3123	156.2	-4.44432E-001	-1.06927E-003	0.00000E+000	-4.45000E-001	6.64250E-005	10	...........
	3124	156.25	-4.54397E-001	-1.08582E-003	0.00000E+000	-4.55000E-001	6.44910E-005	10	...........
	3125	156.3	-4.64504E-001	-1.04031E-003	0.00000E+000	-4.65000E-001	7.03596E-005	10	...........
	3126	156.35	-4.74474E-001	-9.67522E-004	0.00000E+000	-4.75000E-001	6.49245E-005	10	...........
	3127	156.4	-4.84437E-001	-9.18541E-004	0.00000E+000	-4.85000E-001	6.82256E-005	10	...........
	3128	156.45	-4.94367E-001	-8.86202E-004	0.00000E+000	-4.95000E-001	6.50579E-005	10	...........
	3129	156.5	-5.04466E-001	-8.84939E-004	0.00000E+000	-5.05000E-001	6.87924E-005	10	...........
	3130	156.55	-5.14463E-001	-8.97874E-004	0.00000E+000	-5.15000E-001	6.75920E-005	10	...........
	3131	156.6	-5.24467E-001	-9.43448E-004	0.00000E+000	-5.25000E-001	6.55914E-005	10	...........
	3132	156.65	-5.34323E-001	-1.00898E-003	0.00000E+000	-5.35000E-001	6.03564E-005	10	...........
	3133	156.7	-5.44450E-001	-1.12192E-003	0.00000E+000	-5.45000E-001	6.24237E-005	10	...........
	3134	156.75	-5.54417E-001	-1.27343E-003	0.00000E+000	-5.55000E-001	6.44244E-005	10	...........
	3135	156.8	-5.64350E-001	-1.47948E-003	0.00000E+000	-5.65000E-001	6.38909E-005	10	...........
	3136	156.85	-5.74305E-001	-1.71231E-003	0.00000E+000	-5.75000E-001	6.75920E-005	10	...........
	3137	156.9	-5.84402E-001	-1.94520E-003	0.00000E+000	-5.85000E-001	6.88258E-005	10	...........
	3138	156.95	-5.94456E-001	-2.08483E-003	0.00000E+000	-5.95000E-001	6.94926E-005	10	...........
	3139	157	-6.04371E-001	-2.11717E-003	0.00000E+000	-6.05000E-001	6.43243E-005	10	...........
	3140	157.05	-6.14275E-001	-2.07124E-003	0.00000E+000	-6.15000E-001	6.69252E-005	10	...........
	3141	157.1	-6.24359E-001	-2.02937E-003	0.00000E+000	-6.25000E-001	6.13567E-005	10	...........
	3142	157.15	-6.34379E-001	-2.00602E-003	0.00000E+000	-6.35000E-001	7.10265E-005	10	...........
	3143	157.2	-6.44263E-001	-2.02742E-003	0.00000E+000	-6.45000E-001	6.77254E-005	10	...........
	3144	157.25	-6.54305E-001	-2.07671E-003	0.00000E+000	-6.55000E-001	7.10265E-005	10	...........
	3145	157.3	-6.64297E-001	-2.17063E-003	0.00000E+000	-6.65000E-001	6.26238E-005	10	...........
	3146	157.35	-6.74455E-001	-2.29378E-003	0.00000E+000	-6.75000E-001	7.04930E-005	10	...........
	3147	157.4	-6.84294E-001	-2.48131E-003	0.00000E+000	-6.85000E-001	6.57915E-005	10	...........
	3148	157.45	-6.94232E-001	-2.75678E-003	0.00000E+000	-6.95000E-001	7.31271E-005	10	...........
CURVE11	TABLE
	Pt	T	Vf	Im	Vu	Sig	Ach	IERange	Over
	#	s	V vs. Ref.	A	V	V	V	#	bits
	3149	157.5	-6.84387E-001	-7.10947E-004	0.00000E+000	-6.85000E-001	6.51246E-005	10	...........
	3150	157.55	-6.74551E-001	2.69894E-004	0.00000E+000	-6.75000E-001	7.35606E-005	10	...........
	3151	157.6	-6.64423E-001	8.06403E-004	0.00000E+000	-6.65000E-001	6.77587E-005	10	...........
	3152	157.65	-6.54396E-001	1.10119E-003	0.00000E+000	-6.55000E-001	6.74253E-005	10	...........
	3153	157.7	-6.44357E-001	1.24826E-003	0.00000E+000	-6.45000E-001	6.32907E-005	10	...........
	3154	157.75	-6.34480E-001	1.33918E-003	0.00000E+000	-6.35000E-001	6.94593E-005	10	...........
	3155	157.8	-6.24450E-001	1.39679E-003	0.00000E+000	-6.25000E-001	6.34240E-005	10	...........
	3156	157.85	-6.14353E-001	1.45782E-003	0.00000E+000	-6.15000E-001	6.45577E-005	10	...........
	3157	157.9	-6.04460E-001	1.51978E-003	0.00000E+000	-6.05000E-001	6.56914E-005	10	...........
	3158	157.95	-5.94551E-001	1.60749E-003	0.00000E+000	-5.95000E-001	6.96927E-005	10	...........
	3159	158	-5.84510E-001	1.70387E-003	0.00000E+000	-5.85000E-001	6.66584E-005	10	...........
	3160	158.05	-5.74364E-001	1.81431E-003	0.00000E+000	-5.75000E-001	6.31906E-005	10	...........
	3161	158.1	-5.64457E-001	1.88524E-003	0.00000E+000	-5.65000E-001	6.78588E-005	10	...........
	3162	158.15	-5.54519E-001	1.84427E-003	0.00000E+000	-5.55000E-001	6.36574E-005	10	...........
	3163	158.2	-5.44560E-001	1.64802E-003	0.00000E+000	-5.45000E-001	6.38909E-005	10	...........
	3164	158.25	-5.34373E-001	1.41867E-003	0.00000E+000	-5.35000E-001	6.43243E-005	10	...........
	3165	158.3	-5.24511E-001	1.23952E-003	0.00000E+000	-5.25000E-001	7.11932E-005	10	...........
	3166	158.35	-5.14552E-001	1.14578E-003	0.00000E+000	-5.15000E-001	6.73253E-005	10	...........
	3167	158.4	-5.04538E-001	1.10426E-003	0.00000E+000	-5.05000E-001	6.73920E-005	10	...........
	3168	158.45	-4.94393E-001	1.11326E-003	0.00000E+000	-4.95000E-001	6.03564E-005	10	...........
	3169	158.5	-4.84515E-001	1.13115E-003	0.00000E+000	-4.85000E-001	6.57581E-005	10	...........
	3170	158.55	-4.74569E-001	1.14713E-003	0.00000E+000	-4.75000E-001	6.34907E-005	10	...........
	3171	158.6	-4.64575E-001	1.15157E-003	0.00000E+000	-4.65000E-001	6.95260E-005	10	...........
	3172	158.65	-4.54446E-001	1.19683E-003	0.00000E+000	-4.55000E-001	6.04231E-005	10	...........
	3173	158.7	-4.44507E-001	1.28067E-003	0.00000E+000	-4.45000E-001	6.59582E-005	10	...........
	3174	158.75	-4.34563E-001	1.38786E-003	0.00000E+000	-4.35000E-001	6.73586E-005	10	...........
	3175	158.8	-4.24620E-001	1.42899E-003	0.00000E+000	-4.25000E-001	6.87924E-005	10	...........
	3176	158.85	-4.14377E-001	1.32941E-003	0.00000E+000	-4.15000E-001	6.21236E-005	10	...........
	3177	158.9	-4.04578E-001	1.06623E-003	0.00000E+000	-4.05000E-001	6.88591E-005	10	...........
	3178	158.95	-3.94575E-001	7.99063E-004	0.00000E+000	-3.95000E-001	6.29572E-005	10	...........
	3179	159	-3.84680E-001	6.15889E-004	0.00000E+000	-3.85000E-001	6.61582E-005	10	...........
	3180	159.05	-3.74576E-001	5.18997E-004	0.00000E+000	-3.75000E-001	6.45577E-005	10	...........