File: 20190222 HUPD/CV_test_3.DTA
EXPLAIN
TAG	CV
TITLE	LABEL	CV	Test &Identifier
DATE	LABEL	2/22/2019	Date
TIME	LABEL	11:02:58	Time
NOTES	NOTES	3	&Notes...
	0.5 M H2SO4
	Pt-wire CE
	byt CE/WE
PSTAT	PSTAT	REF600-16093	Potentiostat
VINIT	POTEN	0.00000E+000	T	Initial &E (V)
VLIMIT1	POTEN	9.00000E-001	F	Scan Limit &1 (V)
VLIMIT2	POTEN	-6.95000E-001	F	Scan Limit &2 (V)
VFINAL	POTEN	0.00000E+000	T	Final &E (V)
SCANRATE	QUANT	2.00000E+002	&Scan Rate (mV/s)
STEPSIZE	QUANT	1.00000E+001	St&ep Size (mV)
CYCLES	IQUANT	10	C&ycles (#)
IMODE	SELECTOR	1	I/E Range &Mode
IRANGE	QUANT	1.00000E+001	&Max Current (mA)
AREA	QUANT	1.00000E+000	Electrode &Area (cm^2)
ELECTRODETYPE	SELECTOR	0	Electrode Type
STRIPPING	TOGGLE	F	Used for Stripping
POLARITY	TOGGLE	F	Signal Polarity
CONDIT	TWOPARAM	F	1.50000E+001	0.00000E+000	Conditionin&g	Time(s)	E(V)
DELAY	TWOPARAM	T	5.00000E+000	0.00000E+000	Init. De&lay	Time(s)	Stab.(mV/s)
EQDELAY	QUANT	5.00000E+000	Equil. &Time (s)
IRCOMP	SELECTOR	0	IRCom&p
PFCOR	QUANT	0.00000E+000	PF Corr. (ohm)
SAMPLINGMODE	SELECTOR	2	Sampling &Mode
OCVCURVE	TABLE	20
	Pt	T	Vf	Vm	Ach	Over
	#	s	V vs. Ref.	V	V	bits
	0	0.25	-2.01629E-001	-2.01629E-001	6.41597E-005	...........
	1	0.5	-2.01624E-001	-2.01407E-001	6.57263E-005	...........
	2	0.75	-2.01603E-001	-2.01454E-001	7.37595E-005	...........
	3	1	-2.01555E-001	-2.01256E-001	7.84261E-005	...........
	4	1.25	-2.01490E-001	-2.01537E-001	6.74596E-005	...........
	5	1.5	-2.01425E-001	-2.00844E-001	7.06596E-005	...........
	6	1.75	-2.01341E-001	-2.00562E-001	6.96929E-005	...........
	7	2	-2.01203E-001	-2.01220E-001	6.56263E-005	...........
	8	2.25	-2.01062E-001	-2.01721E-001	6.80596E-005	...........
	9	2.5	-2.01047E-001	-2.01538E-001	6.88929E-005	...........
	10	2.75	-2.01190E-001	-2.01750E-001	6.84929E-005	...........
	11	3	-2.01381E-001	-2.00997E-001	6.58596E-005	...........
	12	3.25	-2.01479E-001	-2.01075E-001	6.61930E-005	...........
	13	3.5	-2.01427E-001	-2.00959E-001	6.77929E-005	...........
	14	3.75	-2.01282E-001	-2.01133E-001	6.61263E-005	...........
	15	4	-2.01137E-001	-2.00582E-001	6.44930E-005	...........
	16	4.25	-2.01008E-001	-2.00080E-001	7.06929E-005	...........
	17	4.5	-2.00833E-001	-1.99993E-001	6.77263E-005	...........
	18	4.75	-2.00574E-001	-1.99556E-001	6.80596E-005	...........
	19	5	-2.00238E-001	-1.98019E-001	6.70930E-005	...........
EOC	QUANT	-0.2002385	Open Circuit (V)
PSTATMODEL	IQUANT	4	Pstat Model
PSTATSECTION	LABEL	REF600-16093	Pstat Section
PSTATSERIALNO	LABEL	16093	Pstat Serial Number
CTRLMODE	IQUANT	1	Control Mode
IESTAB	IQUANT	2	I/E Stability
CASPEED	IQUANT	2	Control Amp Speed
CONVENTION	IQUANT	1	Current Convention
ICHRANGE	IQUANT	2	Ich Range
ICHRANGEMODE	TOGGLE	F	Ich Auto Range
ICHOFFSETENABLE	TOGGLE	F	Ich Offset Enable
ICHOFFSET	QUANT	0	Ich Offset (V)
ICHFILTER	IQUANT	2	Ich Filter
VCHRANGE	IQUANT	2	Vch Range
VCHRANGEMODE	TOGGLE	F	Vch Auto Range
VCHOFFSETENABLE	TOGGLE	F	Vch Offset Enable
VCHOFFSET	QUANT	0	Vch Offset (V)
VCHFILTER	IQUANT	2	Vch Filter
ACHRANGE	IQUANT	2	Ach Range
ACHOFFSETENABLE	TOGGLE	F	Ach Offset Enable
ACHOFFSET	QUANT	0	Ach Offset (V)
ACHFILTER	IQUANT	1	Ach Filter
IERANGELOWERLIMIT	IQUANT	1	I/E Range Lower Limit
IERANGEMODE	TOGGLE	F	I/E AutoRange
IERANGE	IQUANT	10	I/E Range
POSFEEDENABLE	TOGGLE	F	Positive Feedback IR Comp
POSFEEDRESISTANCE	QUANT	0	Positive Feedback Resistance (ohm)
ACHSELECT	IQUANT	0	Ach Select
CABLEID	IQUANT	14	Cable ID
DCCALDATE	LABEL	2/18/2019	DC Calibration Date
ACCALDATE	LABEL	2/18/2019	AC Calibration Date
THERMOSELECT	IQUANT	1	Thermo Select
FRAMEWORKVERSION	QUANT	6.33	Framework Version
INSTRUMENTVERSION	LABEL	3.50	Instrument Version
CURVE1	TABLE
	Pt	T	Vf	Im	Vu	Sig	Ach	IERange	Over
	#	s	V vs. Ref.	A	V	V	V	#	bits
	0	0.05	-1.99954E-001	-1.70619E-006	0.00000E+000	-2.00250E-001	1.62255E-004	10	...........
	1	0.1	-1.90002E-001	3.15495E-006	0.00000E+000	-1.90250E-001	1.62789E-004	10	...........
	2	0.15	-1.80051E-001	3.31367E-006	0.00000E+000	-1.80250E-001	1.65323E-004	10	...........
	3	0.2	-1.70042E-001	3.50508E-006	0.00000E+000	-1.70250E-001	1.64656E-004	10	...........
	4	0.25	-1.59975E-001	4.20667E-006	0.00000E+000	-1.60250E-001	1.64623E-004	10	...........
	5	0.3	-1.50019E-001	4.37407E-006	0.00000E+000	-1.50250E-001	1.66824E-004	10	...........
	6	0.35	-1.40108E-001	4.59081E-006	0.00000E+000	-1.40250E-001	1.64389E-004	10	...........
	7	0.4	-1.30034E-001	5.07833E-006	0.00000E+000	-1.30250E-001	1.63056E-004	10	...........
	8	0.45	-1.19992E-001	5.50915E-006	0.00000E+000	-1.20250E-001	1.62856E-004	10	...........
	9	0.5	-1.10068E-001	5.78992E-006	0.00000E+000	-1.10250E-001	1.60155E-004	10	...........
	10	0.55	-1.00094E-001	5.84128E-006	0.00000E+000	-1.00250E-001	1.64490E-004	10	...........
	11	0.6	-9.01273E-002	6.42416E-006	0.00000E+000	-9.02500E-002	1.67724E-004	10	...........
	12	0.65	-7.99608E-002	6.81830E-006	0.00000E+000	-8.02500E-002	1.64956E-004	10	...........
	13	0.7	-7.00988E-002	7.48055E-006	0.00000E+000	-7.02500E-002	1.66323E-004	10	...........
	14	0.75	-6.01293E-002	7.97740E-006	0.00000E+000	-6.02500E-002	1.65857E-004	10	...........
	15	0.8	-5.01062E-002	8.43357E-006	0.00000E+000	-5.02500E-002	1.68491E-004	10	...........
	16	0.85	-4.00962E-002	9.01445E-006	0.00000E+000	-4.02500E-002	1.65256E-004	10	...........
	17	0.9	-3.00832E-002	9.61401E-006	0.00000E+000	-3.02500E-002	1.67257E-004	10	...........
	18	0.95	-2.01154E-002	1.03970E-005	0.00000E+000	-2.02500E-002	1.65857E-004	10	...........
	19	1	-1.01713E-002	1.09332E-005	0.00000E+000	-1.02500E-002	1.67490E-004	10	...........
	20	1.05	3.13916E-005	1.15961E-005	0.00000E+000	-2.49989E-004	1.65223E-004	10	...........
	21	1.1	9.82691E-003	1.22063E-005	0.00000E+000	9.75001E-003	1.69725E-004	10	...........
	22	1.15	1.98223E-002	1.33421E-005	0.00000E+000	1.97500E-002	1.67457E-004	10	...........
	23	1.2	2.98117E-002	1.47252E-005	0.00000E+000	2.97500E-002	1.71125E-004	10	...........
	24	1.25	4.00385E-002	1.56296E-005	0.00000E+000	3.97500E-002	1.68257E-004	10	...........
	25	1.3	4.98082E-002	1.72328E-005	0.00000E+000	4.97500E-002	1.70325E-004	10	...........
	26	1.35	5.98100E-002	1.82625E-005	0.00000E+000	5.97500E-002	1.70125E-004	10	...........
	27	1.4	6.97951E-002	1.92749E-005	0.00000E+000	6.97500E-002	1.70025E-004	10	...........
	28	1.45	7.98796E-002	2.06234E-005	0.00000E+000	7.97500E-002	1.68691E-004	10	...........
	29	1.5	8.97954E-002	2.19913E-005	0.00000E+000	8.97500E-002	1.65990E-004	10	...........
	30	1.55	9.97714E-002	2.36439E-005	0.00000E+000	9.97500E-002	1.66990E-004	10	...........
	31	1.6	1.09750E-001	2.52265E-005	0.00000E+000	1.09750E-001	1.68191E-004	10	...........
	32	1.65	1.19814E-001	2.72259E-005	0.00000E+000	1.19750E-001	1.67724E-004	10	...........
	33	1.7	1.29717E-001	2.94093E-005	0.00000E+000	1.29750E-001	1.68091E-004	10	...........
	34	1.75	1.39710E-001	3.19930E-005	0.00000E+000	1.39750E-001	1.64756E-004	10	...........
	35	1.8	1.49701E-001	3.46326E-005	0.00000E+000	1.49750E-001	1.68191E-004	10	...........
	36	1.85	1.59740E-001	3.78778E-005	0.00000E+000	1.59750E-001	1.66323E-004	10	...........
	37	1.9	1.69723E-001	4.12664E-005	0.00000E+000	1.69750E-001	1.67157E-004	10	...........
	38	1.95	1.79686E-001	4.52032E-005	0.00000E+000	1.79750E-001	1.63056E-004	10	...........
	39	2	1.89688E-001	4.90673E-005	0.00000E+000	1.89750E-001	1.68991E-004	10	...........
	40	2.05	1.99820E-001	5.33889E-005	0.00000E+000	1.99750E-001	1.65356E-004	10	...........
	41	2.1	2.09661E-001	5.76391E-005	0.00000E+000	2.09750E-001	1.66323E-004	10	...........
	42	2.15	2.19647E-001	6.26730E-005	0.00000E+000	2.19750E-001	1.64656E-004	10	...........
	43	2.2	2.29558E-001	6.74568E-005	0.00000E+000	2.29750E-001	1.68991E-004	10	...........
	44	2.25	2.39624E-001	7.24793E-005	0.00000E+000	2.39750E-001	1.65957E-004	10	...........
	45	2.3	2.49653E-001	7.83828E-005	0.00000E+000	2.49750E-001	1.65190E-004	10	...........
	46	2.35	2.59634E-001	8.44524E-005	0.00000E+000	2.59750E-001	1.64156E-004	10	...........
	47	2.4	2.69536E-001	9.01839E-005	0.00000E+000	2.69750E-001	1.64623E-004	10	...........
	48	2.45	2.79631E-001	9.62968E-005	0.00000E+000	2.79750E-001	1.65823E-004	10	...........
	49	2.5	2.89645E-001	1.02266E-004	0.00000E+000	2.89750E-001	1.66457E-004	10	...........
	50	2.55	2.99613E-001	1.07979E-004	0.00000E+000	2.99750E-001	1.66223E-004	10	...........
	51	2.6	3.09492E-001	1.13832E-004	0.00000E+000	3.09750E-001	1.70025E-004	10	...........
	52	2.65	3.19550E-001	1.18646E-004	0.00000E+000	3.19750E-001	1.66323E-004	10	...........
	53	2.7	3.29639E-001	1.23048E-004	0.00000E+000	3.29750E-001	1.67991E-004	10	...........
	54	2.75	3.39579E-001	1.30207E-004	0.00000E+000	3.39750E-001	1.66757E-004	10	...........
	55	2.8	3.49449E-001	1.32538E-004	0.00000E+000	3.49750E-001	1.69091E-004	10	...........
	56	2.85	3.59590E-001	1.36390E-004	0.00000E+000	3.59750E-001	1.67557E-004	10	...........
	57	2.9	3.69615E-001	1.39638E-004	0.00000E+000	3.69750E-001	1.64823E-004	10	...........
	58	2.95	3.79588E-001	1.43025E-004	0.00000E+000	3.79750E-001	1.65323E-004	10	...........
	59	3	3.89472E-001	1.46457E-004	0.00000E+000	3.89750E-001	1.67424E-004	10	...........
	60	3.05	3.99491E-001	1.49724E-004	0.00000E+000	3.99750E-001	1.66323E-004	10	...........
	61	3.1	4.09634E-001	1.53589E-004	0.00000E+000	4.09750E-001	1.65023E-004	10	...........
	62	3.15	4.19485E-001	1.56080E-004	0.00000E+000	4.19750E-001	1.70491E-004	10	...........
	63	3.2	4.29436E-001	1.58630E-004	0.00000E+000	4.29750E-001	1.68491E-004	10	...........
	64	3.25	4.39457E-001	1.61360E-004	0.00000E+000	4.39750E-001	1.69424E-004	10	...........
	65	3.3	4.49633E-001	1.65388E-004	0.00000E+000	4.49750E-001	1.63823E-004	10	...........
	66	3.35	4.59498E-001	1.67208E-004	0.00000E+000	4.59750E-001	1.65523E-004	10	...........
	67	3.4	4.69443E-001	1.70180E-004	0.00000E+000	4.69750E-001	1.65423E-004	10	...........
	68	3.45	4.79466E-001	1.73760E-004	0.00000E+000	4.79750E-001	1.66757E-004	10	...........
	69	3.5	4.89591E-001	1.76987E-004	0.00000E+000	4.89750E-001	1.65223E-004	10	...........
	70	3.55	4.99459E-001	1.81834E-004	0.00000E+000	4.99750E-001	1.66190E-004	10	...........
	71	3.6	5.09416E-001	1.84224E-004	0.00000E+000	5.09750E-001	1.65023E-004	10	...........
	72	3.65	5.19427E-001	1.88153E-004	0.00000E+000	5.19750E-001	1.68457E-004	10	...........
	73	3.7	5.29590E-001	1.92123E-004	0.00000E+000	5.29750E-001	1.63423E-004	10	...........
	74	3.75	5.39409E-001	1.96026E-004	0.00000E+000	5.39750E-001	1.66824E-004	10	...........
	75	3.8	5.49402E-001	2.01070E-004	0.00000E+000	5.49750E-001	1.66957E-004	10	...........
	76	3.85	5.59406E-001	2.04732E-004	0.00000E+000	5.59750E-001	1.70458E-004	10	...........
	77	3.9	5.69471E-001	2.09579E-004	0.00000E+000	5.69750E-001	1.65623E-004	10	...........
	78	3.95	5.79413E-001	2.13197E-004	0.00000E+000	5.79750E-001	1.66390E-004	10	...........
	79	4	5.89347E-001	2.17658E-004	0.00000E+000	5.89750E-001	1.65056E-004	10	...........
	80	4.05	5.99355E-001	2.21626E-004	0.00000E+000	5.99750E-001	1.66724E-004	10	...........
	81	4.1	6.09541E-001	2.25851E-004	0.00000E+000	6.09750E-001	1.67624E-004	10	...........
	82	4.15	6.19323E-001	2.30258E-004	0.00000E+000	6.19750E-001	1.66157E-004	10	...........
	83	4.2	6.29301E-001	2.34907E-004	0.00000E+000	6.29750E-001	1.64123E-004	10	...........
	84	4.25	6.39297E-001	2.40512E-004	0.00000E+000	6.39750E-001	1.67457E-004	10	...........
	85	4.3	6.49316E-001	2.43526E-004	0.00000E+000	6.49750E-001	1.65290E-004	10	...........
	86	4.35	6.59304E-001	2.44772E-004	0.00000E+000	6.59750E-001	1.66957E-004	10	...........
	87	4.4	6.69297E-001	2.49886E-004	0.00000E+000	6.69750E-001	1.64189E-004	10	...........
	88	4.45	6.79224E-001	2.54535E-004	0.00000E+000	6.79750E-001	1.65957E-004	10	...........
	89	4.5	6.89358E-001	2.54108E-004	0.00000E+000	6.89750E-001	1.65023E-004	10	...........
	90	4.55	6.99289E-001	2.55342E-004	0.00000E+000	6.99750E-001	1.67024E-004	10	...........
	91	4.6	7.09268E-001	2.57921E-004	0.00000E+000	7.09750E-001	1.63756E-004	10	...........
	92	4.65	7.19193E-001	2.60212E-004	0.00000E+000	7.19750E-001	1.67657E-004	10	...........
	93	4.7	7.29232E-001	2.61681E-004	0.00000E+000	7.29750E-001	1.65123E-004	10	...........
	94	4.75	7.39259E-001	2.62356E-004	0.00000E+000	7.39750E-001	1.67524E-004	10	...........
	95	4.8	7.49238E-001	2.64161E-004	0.00000E+000	7.49750E-001	1.66590E-004	10	...........
	96	4.85	7.59081E-001	2.64716E-004	0.00000E+000	7.59750E-001	1.68858E-004	10	...........
	97	4.9	7.69245E-001	2.65737E-004	0.00000E+000	7.69750E-001	1.64890E-004	10	...........
	98	4.95	7.79237E-001	2.66935E-004	0.00000E+000	7.79750E-001	1.65723E-004	10	...........
	99	5	7.89240E-001	2.68707E-004	0.00000E+000	7.89750E-001	1.63989E-004	10	...........
	100	5.05	7.99146E-001	2.68578E-004	0.00000E+000	7.99750E-001	1.66390E-004	10	...........
	101	5.1	8.09164E-001	2.69940E-004	0.00000E+000	8.09750E-001	1.65757E-004	10	...........
	102	5.15	8.19242E-001	2.71240E-004	0.00000E+000	8.19750E-001	1.65823E-004	10	...........
	103	5.2	8.29211E-001	2.73272E-004	0.00000E+000	8.29750E-001	1.67457E-004	10	...........
	104	5.25	8.39078E-001	2.74149E-004	0.00000E+000	8.39750E-001	1.67791E-004	10	...........
	105	5.3	8.49169E-001	2.79289E-004	0.00000E+000	8.49750E-001	1.63923E-004	10	...........
	106	5.35	8.59237E-001	2.79747E-004	0.00000E+000	8.59750E-001	1.64890E-004	10	...........
	107	5.4	8.69206E-001	2.83502E-004	0.00000E+000	8.69750E-001	1.64156E-004	10	...........
	108	5.45	8.79144E-001	2.88282E-004	0.00000E+000	8.79750E-001	1.65657E-004	10	...........
	109	5.5	8.89212E-001	2.94944E-004	0.00000E+000	8.89750E-001	1.64523E-004	10	...........
	110	5.55	8.99231E-001	3.02940E-004	0.00000E+000	8.99750E-001	1.67090E-004	10	...........
	111	5.6	8.89324E-001	2.00305E-004	0.00000E+000	8.89750E-001	1.65657E-004	10	...........
	112	5.65	8.79214E-001	1.46177E-004	0.00000E+000	8.79750E-001	1.71092E-004	10	...........
	113	5.7	8.69287E-001	1.09862E-004	0.00000E+000	8.69750E-001	1.66990E-004	10	...........
	114	5.75	8.59322E-001	8.40429E-005	0.00000E+000	8.59750E-001	1.65323E-004	10	...........
	115	5.8	8.49280E-001	6.69286E-005	0.00000E+000	8.49750E-001	1.65256E-004	10	...........
	116	5.85	8.39154E-001	5.21851E-005	0.00000E+000	8.39750E-001	1.70558E-004	10	...........
	117	5.9	8.29291E-001	4.22594E-005	0.00000E+000	8.29750E-001	1.67624E-004	10	...........
	118	5.95	8.19322E-001	3.48347E-005	0.00000E+000	8.19750E-001	1.66257E-004	10	...........
	119	6	8.09322E-001	2.77287E-005	0.00000E+000	8.09750E-001	1.68024E-004	10	...........
	120	6.05	7.99251E-001	3.26445E-005	0.00000E+000	7.99750E-001	1.65990E-004	10	...........
	121	6.1	7.89328E-001	1.96531E-005	0.00000E+000	7.89750E-001	1.65723E-004	10	...........
	122	6.15	7.79316E-001	1.50060E-005	0.00000E+000	7.79750E-001	1.69591E-004	10	...........
	123	6.2	7.69312E-001	1.39616E-005	0.00000E+000	7.69750E-001	1.66057E-004	10	...........
	124	6.25	7.59144E-001	1.02116E-005	0.00000E+000	7.59750E-001	1.70191E-004	10	...........
	125	6.3	7.49329E-001	8.07477E-006	0.00000E+000	7.49750E-001	1.63556E-004	10	...........
	126	6.35	7.39340E-001	6.19941E-006	0.00000E+000	7.39750E-001	1.65023E-004	10	...........
	127	6.4	7.29332E-001	5.48648E-006	0.00000E+000	7.29750E-001	1.61955E-004	10	...........
	128	6.45	7.19311E-001	7.27314E-006	0.00000E+000	7.19750E-001	1.63122E-004	10	...........
	129	6.5	7.09361E-001	3.19629E-006	0.00000E+000	7.09750E-001	1.62556E-004	10	...........
	130	6.55	6.99375E-001	1.76843E-006	0.00000E+000	6.99750E-001	1.65923E-004	10	...........
	131	6.6	6.89420E-001	1.23423E-006	0.00000E+000	6.89750E-001	1.63689E-004	10	...........
	132	6.65	6.79379E-001	-5.74436E-007	0.00000E+000	6.79750E-001	1.64189E-004	10	...........
	133	6.7	6.69385E-001	-1.08863E-006	0.00000E+000	6.69750E-001	1.64890E-004	10	...........
	134	6.75	6.59402E-001	-2.01764E-006	0.00000E+000	6.59750E-001	1.63389E-004	10	...........
	135	6.8	6.49393E-001	-2.45780E-006	0.00000E+000	6.49750E-001	1.61589E-004	10	...........
	136	6.85	6.39409E-001	-3.45417E-006	0.00000E+000	6.39750E-001	1.64356E-004	10	...........
	137	6.9	6.29415E-001	-2.24839E-006	0.00000E+000	6.29750E-001	1.66657E-004	10	...........
	138	6.95	6.19416E-001	-4.69796E-006	0.00000E+000	6.19750E-001	1.67257E-004	10	...........
	139	7	6.09667E-001	-5.71301E-006	0.00000E+000	6.09750E-001	1.65390E-004	10	...........
	140	7.05	5.99424E-001	-6.73539E-006	0.00000E+000	5.99750E-001	1.70358E-004	10	...........
	141	7.1	5.89449E-001	-6.52331E-006	0.00000E+000	5.89750E-001	1.64189E-004	10	...........
	142	7.15	5.79483E-001	-7.25691E-006	0.00000E+000	5.79750E-001	1.69658E-004	10	...........
	143	7.2	5.69539E-001	-8.90086E-006	0.00000E+000	5.69750E-001	1.69591E-004	10	...........
	144	7.25	5.59452E-001	-9.68648E-006	0.00000E+000	5.59750E-001	1.70191E-004	10	...........
	145	7.3	5.49438E-001	-1.02420E-005	0.00000E+000	5.49750E-001	1.67157E-004	10	...........
	146	7.35	5.39484E-001	-1.06855E-005	0.00000E+000	5.39750E-001	1.67991E-004	10	...........
	147	7.4	5.29546E-001	-1.12977E-005	0.00000E+000	5.29750E-001	1.65356E-004	10	...........
	148	7.45	5.19467E-001	-1.18920E-005	0.00000E+000	5.19750E-001	1.64823E-004	10	...........
	149	7.5	5.09504E-001	-1.22348E-005	0.00000E+000	5.09750E-001	1.67891E-004	10	...........
	150	7.55	4.99486E-001	-1.33798E-005	0.00000E+000	4.99750E-001	1.65190E-004	10	...........
	151	7.6	4.89628E-001	-1.37740E-005	0.00000E+000	4.89750E-001	1.67390E-004	10	...........
	152	7.65	4.79520E-001	-1.45436E-005	0.00000E+000	4.79750E-001	1.66490E-004	10	...........
	153	7.7	4.69501E-001	-1.52625E-005	0.00000E+000	4.69750E-001	1.67090E-004	10	...........
	154	7.75	4.59581E-001	-1.62256E-005	0.00000E+000	4.59750E-001	1.67124E-004	10	...........
	155	7.8	4.49663E-001	-1.73987E-005	0.00000E+000	4.49750E-001	1.64123E-004	10	...........
	156	7.85	4.39502E-001	-1.87945E-005	0.00000E+000	4.39750E-001	1.70425E-004	10	...........
	157	7.9	4.29512E-001	-1.97555E-005	0.00000E+000	4.29750E-001	1.69624E-004	10	...........
	158	7.95	4.19550E-001	-2.10294E-005	0.00000E+000	4.19750E-001	1.69324E-004	10	...........
	159	8	4.09685E-001	-2.21057E-005	0.00000E+000	4.09750E-001	1.65123E-004	10	...........
	160	8.05	3.99519E-001	-2.30928E-005	0.00000E+000	3.99750E-001	1.66023E-004	10	...........
	161	8.1	3.89550E-001	-2.41718E-005	0.00000E+000	3.89750E-001	1.66457E-004	10	...........
	162	8.15	3.79678E-001	-2.58091E-005	0.00000E+000	3.79750E-001	1.65023E-004	10	...........
	163	8.2	3.69647E-001	-2.71536E-005	0.00000E+000	3.69750E-001	1.63189E-004	10	...........
	164	8.25	3.59643E-001	-2.93864E-005	0.00000E+000	3.59750E-001	1.62756E-004	10	...........
	165	8.3	3.49535E-001	-3.04208E-005	0.00000E+000	3.49750E-001	1.68124E-004	10	...........
	166	8.35	3.39662E-001	-3.22648E-005	0.00000E+000	3.39750E-001	1.62956E-004	10	...........
	167	8.4	3.29720E-001	-3.37974E-005	0.00000E+000	3.29750E-001	1.64623E-004	10	...........
	168	8.45	3.19620E-001	-3.58802E-005	0.00000E+000	3.19750E-001	1.65657E-004	10	...........
	169	8.5	3.09585E-001	-3.80083E-005	0.00000E+000	3.09750E-001	1.68791E-004	10	...........
	170	8.55	2.99677E-001	-4.06706E-005	0.00000E+000	2.99750E-001	1.64556E-004	10	...........
	171	8.6	2.89699E-001	-4.29768E-005	0.00000E+000	2.89750E-001	1.68157E-004	10	...........
	172	8.65	2.79666E-001	-4.57465E-005	0.00000E+000	2.79750E-001	1.65790E-004	10	...........
	173	8.7	2.69549E-001	-4.88310E-005	0.00000E+000	2.69750E-001	1.69291E-004	10	...........
	174	8.75	2.59707E-001	-5.21469E-005	0.00000E+000	2.59750E-001	1.67991E-004	10	...........
	175	8.8	2.49726E-001	-5.56288E-005	0.00000E+000	2.49750E-001	1.66123E-004	10	...........
	176	8.85	2.39680E-001	-5.97644E-005	0.00000E+000	2.39750E-001	1.65790E-004	10	...........
	177	8.9	2.29655E-001	-6.40333E-005	0.00000E+000	2.29750E-001	1.66323E-004	10	...........
	178	8.95	2.19732E-001	-6.88711E-005	0.00000E+000	2.19750E-001	1.65990E-004	10	...........
	179	9	2.09734E-001	-7.38022E-005	0.00000E+000	2.09750E-001	1.64089E-004	10	...........
	180	9.05	1.99877E-001	-8.02080E-005	0.00000E+000	1.99750E-001	1.67924E-004	10	...........
	181	9.1	1.89728E-001	-8.70178E-005	0.00000E+000	1.89750E-001	1.69424E-004	10	...........
	182	9.15	1.79757E-001	-9.45846E-005	0.00000E+000	1.79750E-001	1.66857E-004	10	...........
	183	9.2	1.69801E-001	-1.02614E-004	0.00000E+000	1.69750E-001	1.68191E-004	10	...........
	184	9.25	1.59803E-001	-1.11659E-004	0.00000E+000	1.59750E-001	1.68124E-004	10	...........
	185	9.3	1.49742E-001	-1.24540E-004	0.00000E+000	1.49750E-001	1.70391E-004	10	...........
	186	9.35	1.39767E-001	-1.33568E-004	0.00000E+000	1.39750E-001	1.67257E-004	10	...........
	187	9.4	1.29794E-001	-1.45916E-004	0.00000E+000	1.29750E-001	1.71092E-004	10	...........
	188	9.45	1.19963E-001	-1.60171E-004	0.00000E+000	1.19750E-001	1.68858E-004	10	...........
	189	9.5	1.09804E-001	-1.75568E-004	0.00000E+000	1.09750E-001	1.73259E-004	10	...........
	190	9.55	9.98493E-002	-1.95745E-004	0.00000E+000	9.97500E-002	1.70425E-004	10	...........
	191	9.6	8.98619E-002	-2.11030E-004	0.00000E+000	8.97500E-002	1.69825E-004	10	...........
	192	9.65	7.99567E-002	-2.30116E-004	0.00000E+000	7.97500E-002	1.67891E-004	10	...........
	193	9.7	6.98494E-002	-2.48792E-004	0.00000E+000	6.97500E-002	1.70391E-004	10	...........
	194	9.75	5.98775E-002	-2.66309E-004	0.00000E+000	5.97500E-002	1.70925E-004	10	...........
	195	9.8	4.98953E-002	-2.82488E-004	0.00000E+000	4.97500E-002	1.71492E-004	10	...........
	196	9.85	4.00989E-002	-2.95535E-004	0.00000E+000	3.97500E-002	1.67824E-004	10	...........
	197	9.9	2.98608E-002	-3.04180E-004	0.00000E+000	2.97500E-002	1.70892E-004	10	...........
	198	9.95	1.98884E-002	-3.06768E-004	0.00000E+000	1.97500E-002	1.67857E-004	10	...........
	199	10	9.87686E-003	-3.03236E-004	0.00000E+000	9.75001E-003	1.71392E-004	10	...........
	200	10.05	7.73729E-005	-2.93788E-004	0.00000E+000	-2.49989E-004	1.68991E-004	10	...........
	201	10.1	-1.01116E-002	-2.82788E-004	0.00000E+000	-1.02500E-002	1.67591E-004	10	...........
	202	10.15	-2.00706E-002	-2.61263E-004	0.00000E+000	-2.02500E-002	1.69524E-004	10	...........
	203	10.2	-2.99810E-002	-2.39658E-004	0.00000E+000	-3.02500E-002	1.68591E-004	10	...........
	204	10.25	-4.00047E-002	-2.17674E-004	0.00000E+000	-4.02500E-002	1.67090E-004	10	...........
	205	10.3	-5.00577E-002	-1.95508E-004	0.00000E+000	-5.02500E-002	1.68391E-004	10	...........
	206	10.35	-6.00695E-002	-1.74243E-004	0.00000E+000	-6.02500E-002	1.70158E-004	10	...........
	207	10.4	-7.00202E-002	-1.53895E-004	0.00000E+000	-7.02500E-002	1.68791E-004	10	...........
	208	10.45	-7.98929E-002	-1.36145E-004	0.00000E+000	-8.02500E-002	1.66390E-004	10	...........
	209	10.5	-9.00471E-002	-1.19962E-004	0.00000E+000	-9.02500E-002	1.67357E-004	10	...........
	210	10.55	-1.00049E-001	-1.05387E-004	0.00000E+000	-1.00250E-001	1.68491E-004	10	...........
	211	10.6	-1.09979E-001	-9.25185E-005	0.00000E+000	-1.10250E-001	1.63556E-004	10	...........
	212	10.65	-1.19956E-001	-8.11756E-005	0.00000E+000	-1.20250E-001	1.66423E-004	10	...........
	213	10.7	-1.29989E-001	-7.08672E-005	0.00000E+000	-1.30250E-001	1.64490E-004	10	...........
	214	10.75	-1.40059E-001	-6.28042E-005	0.00000E+000	-1.40250E-001	1.67224E-004	10	...........
	215	10.8	-1.49944E-001	-5.34073E-005	0.00000E+000	-1.50250E-001	1.66557E-004	10	...........
	216	10.85	-1.59903E-001	-4.65055E-005	0.00000E+000	-1.60250E-001	1.63756E-004	10	...........
	217	10.9	-1.69973E-001	-4.05519E-005	0.00000E+000	-1.70250E-001	1.64690E-004	10	...........
	218	10.95	-1.79972E-001	-3.79316E-005	0.00000E+000	-1.80250E-001	1.65990E-004	10	...........
	219	11	-1.89905E-001	-3.11891E-005	0.00000E+000	-1.90250E-001	1.65190E-004	10	...........
	220	11.05	-1.99889E-001	-2.76185E-005	0.00000E+000	-2.00250E-001	1.64490E-004	10	...........
	221	11.1	-2.09850E-001	-2.49988E-005	0.00000E+000	-2.10250E-001	1.65690E-004	10	...........
	222	11.15	-2.19908E-001	-2.32869E-005	0.00000E+000	-2.20250E-001	1.67057E-004	10	...........
	223	11.2	-2.29886E-001	-2.16409E-005	0.00000E+000	-2.30250E-001	1.64356E-004	10	...........
	224	11.25	-2.39843E-001	-2.09867E-005	0.00000E+000	-2.40250E-001	1.65256E-004	10	...........
	225	11.3	-2.49877E-001	-2.04818E-005	0.00000E+000	-2.50250E-001	1.62556E-004	10	...........
	226	11.35	-2.59906E-001	-1.96102E-005	0.00000E+000	-2.60250E-001	1.66057E-004	10	...........
	227	11.4	-2.69887E-001	-2.18056E-005	0.00000E+000	-2.70250E-001	1.61989E-004	10	...........
	228	11.45	-2.79840E-001	-1.92674E-005	0.00000E+000	-2.80250E-001	1.65223E-004	10	...........
	229	11.5	-2.89840E-001	-1.93421E-005	0.00000E+000	-2.90250E-001	1.64056E-004	10	...........
	230	11.55	-2.99864E-001	-1.99016E-005	0.00000E+000	-3.00250E-001	1.68391E-004	10	...........
	231	11.6	-3.09793E-001	-2.10053E-005	0.00000E+000	-3.10250E-001	1.66957E-004	10	...........
	232	11.65	-3.19805E-001	-2.16336E-005	0.00000E+000	-3.20250E-001	1.66057E-004	10	...........
	233	11.7	-3.29795E-001	-2.32648E-005	0.00000E+000	-3.30250E-001	1.65857E-004	10	...........
	234	11.75	-3.39818E-001	-2.40638E-005	0.00000E+000	-3.40250E-001	1.64923E-004	10	...........
	235	11.8	-3.49789E-001	-5.43357E-005	0.00000E+000	-3.50250E-001	1.64423E-004	10	...........
	236	11.85	-3.59756E-001	-2.93044E-005	0.00000E+000	-3.60250E-001	1.63322E-004	10	...........
	237	11.9	-3.69680E-001	-3.34366E-005	0.00000E+000	-3.70250E-001	1.59955E-004	10	...........
	238	11.95	-3.79782E-001	-3.75748E-005	0.00000E+000	-3.80250E-001	1.65757E-004	10	...........
	239	12	-3.89753E-001	-4.32129E-005	0.00000E+000	-3.90250E-001	1.67157E-004	10	...........
	240	12.05	-3.99757E-001	-4.91765E-005	0.00000E+000	-4.00250E-001	1.68257E-004	10	...........
	241	12.1	-4.09599E-001	-5.76723E-005	0.00000E+000	-4.10250E-001	1.65990E-004	10	...........
	242	12.15	-4.19753E-001	-6.72898E-005	0.00000E+000	-4.20250E-001	1.68691E-004	10	...........
	243	12.2	-4.29731E-001	-8.08902E-005	0.00000E+000	-4.30250E-001	1.66624E-004	10	...........
	244	12.25	-4.39669E-001	-9.45626E-005	0.00000E+000	-4.40250E-001	1.67691E-004	10	...........
	245	12.3	-4.49690E-001	-1.09396E-004	0.00000E+000	-4.50250E-001	1.66223E-004	10	...........
	246	12.35	-4.59736E-001	-1.20948E-004	0.00000E+000	-4.60250E-001	1.70658E-004	10	...........
	247	12.4	-4.69696E-001	-1.31755E-004	0.00000E+000	-4.70250E-001	1.69858E-004	10	...........
	248	12.45	-4.79704E-001	-1.36806E-004	0.00000E+000	-4.80250E-001	1.69624E-004	10	...........
	249	12.5	-4.89529E-001	-1.39761E-004	0.00000E+000	-4.90250E-001	1.65190E-004	10	...........
	250	12.55	-4.99730E-001	-1.42693E-004	0.00000E+000	-5.00250E-001	1.69258E-004	10	...........
	251	12.6	-5.09696E-001	-1.38431E-004	0.00000E+000	-5.10250E-001	1.69491E-004	10	...........
	252	12.65	-5.19657E-001	-1.39729E-004	0.00000E+000	-5.20250E-001	1.67124E-004	10	...........
	253	12.7	-5.29609E-001	-1.44730E-004	0.00000E+000	-5.30250E-001	1.64123E-004	10	...........
	254	12.75	-5.39675E-001	-1.53793E-004	0.00000E+000	-5.40250E-001	1.64956E-004	10	...........
	255	12.8	-5.49719E-001	-1.70633E-004	0.00000E+000	-5.50250E-001	1.65890E-004	10	...........
	256	12.85	-5.59622E-001	-1.93028E-004	0.00000E+000	-5.60250E-001	1.69058E-004	10	...........
	257	12.9	-5.69512E-001	-2.28609E-004	0.00000E+000	-5.70250E-001	1.66757E-004	10	...........
	258	12.95	-5.79660E-001	-2.53528E-004	0.00000E+000	-5.80250E-001	1.71992E-004	10	...........
	259	13	-5.89644E-001	-2.65227E-004	0.00000E+000	-5.90250E-001	1.67857E-004	10	...........
	260	13.05	-5.99586E-001	-2.64068E-004	0.00000E+000	-6.00250E-001	1.67857E-004	10	...........
	261	13.1	-6.09544E-001	-2.49932E-004	0.00000E+000	-6.10250E-001	1.66257E-004	10	...........
	262	13.15	-6.19574E-001	-2.38617E-004	0.00000E+000	-6.20250E-001	1.65490E-004	10	...........
	263	13.2	-6.29594E-001	-2.35321E-004	0.00000E+000	-6.30250E-001	1.66290E-004	10	...........
	264	13.25	-6.39556E-001	-2.34112E-004	0.00000E+000	-6.40250E-001	1.67791E-004	10	...........
	265	13.3	-6.49475E-001	-2.51382E-004	0.00000E+000	-6.50250E-001	1.66057E-004	10	...........
	266	13.35	-6.59562E-001	-2.85096E-004	0.00000E+000	-6.60250E-001	1.64756E-004	10	...........
	267	13.4	-6.69599E-001	-3.73967E-004	0.00000E+000	-6.70250E-001	1.67591E-004	10	...........
	268	13.45	-6.79579E-001	-5.32690E-004	0.00000E+000	-6.80250E-001	1.63056E-004	10	...........
	269	13.5	-6.89479E-001	-8.76872E-004	0.00000E+000	-6.90250E-001	1.65890E-004	10	...........
CURVE2	TABLE
	Pt	T	Vf	Im	Vu	Sig	Ach	IERange	Over
	#	s	V vs. Ref.	A	V	V	V	#	bits
	270	13.55	-6.84370E-001	-2.80634E-004	0.00000E+000	-6.85000E-001	1.63956E-004	10	...........
	271	13.6	-6.74472E-001	2.82189E-005	0.00000E+000	-6.75000E-001	1.67424E-004	10	...........
	272	13.65	-6.64391E-001	7.94932E-005	0.00000E+000	-6.65000E-001	1.63956E-004	10	...........
	273	13.7	-6.54386E-001	9.26561E-005	0.00000E+000	-6.55000E-001	1.61489E-004	10	...........
	274	13.75	-6.44353E-001	1.09106E-004	0.00000E+000	-6.45000E-001	1.62922E-004	10	...........
	275	13.8	-6.34421E-001	1.15207E-004	0.00000E+000	-6.35000E-001	1.59455E-004	10	...........
	276	13.85	-6.24428E-001	1.29740E-004	0.00000E+000	-6.25000E-001	1.63022E-004	10	...........
	277	13.9	-6.14363E-001	1.34231E-004	0.00000E+000	-6.15000E-001	1.65090E-004	10	...........
	278	13.95	-6.04438E-001	1.58617E-004	0.00000E+000	-6.05000E-001	1.66990E-004	10	...........
	279	14	-5.94502E-001	1.71564E-004	0.00000E+000	-5.95000E-001	1.70091E-004	10	...........
	280	14.05	-5.84477E-001	1.91107E-004	0.00000E+000	-5.85000E-001	1.66790E-004	10	...........
	281	14.1	-5.74364E-001	2.03218E-004	0.00000E+000	-5.75000E-001	1.65323E-004	10	...........
	282	14.15	-5.64422E-001	2.09973E-004	0.00000E+000	-5.65000E-001	1.65923E-004	10	...........
	283	14.2	-5.54481E-001	1.84627E-004	0.00000E+000	-5.55000E-001	1.67557E-004	10	...........
	284	14.25	-5.44457E-001	1.60595E-004	0.00000E+000	-5.45000E-001	1.67857E-004	10	...........
	285	14.3	-5.34362E-001	1.36415E-004	0.00000E+000	-5.35000E-001	1.65623E-004	10	...........
	286	14.35	-5.24502E-001	1.26511E-004	0.00000E+000	-5.25000E-001	1.68157E-004	10	...........
	287	14.4	-5.14525E-001	1.17052E-004	0.00000E+000	-5.15000E-001	1.69058E-004	10	...........
	288	14.45	-5.04507E-001	1.17469E-004	0.00000E+000	-5.05000E-001	1.69158E-004	10	...........
	289	14.5	-4.94379E-001	1.18079E-004	0.00000E+000	-4.95000E-001	1.67457E-004	10	...........
	290	14.55	-4.84496E-001	1.25167E-004	0.00000E+000	-4.85000E-001	1.71892E-004	10	...........
	291	14.6	-4.74557E-001	1.23226E-004	0.00000E+000	-4.75000E-001	1.70191E-004	10	...........
	292	14.65	-4.64521E-001	1.27988E-004	0.00000E+000	-4.65000E-001	1.67024E-004	10	...........
	293	14.7	-4.54413E-001	1.32610E-004	0.00000E+000	-4.55000E-001	1.66724E-004	10	...........
	294	14.75	-4.44496E-001	1.46874E-004	0.00000E+000	-4.45000E-001	1.69091E-004	10	...........
	295	14.8	-4.34554E-001	1.51084E-004	0.00000E+000	-4.35000E-001	1.69491E-004	10	...........
	296	14.85	-4.24601E-001	1.47544E-004	0.00000E+000	-4.25000E-001	1.68057E-004	10	...........
	297	14.9	-4.14366E-001	1.18422E-004	0.00000E+000	-4.15000E-001	1.67324E-004	10	...........
	298	14.95	-4.04560E-001	9.14217E-005	0.00000E+000	-4.05000E-001	1.69158E-004	10	...........
	299	15	-3.94565E-001	6.76755E-005	0.00000E+000	-3.95000E-001	1.66924E-004	10	...........
	300	15.05	-3.84552E-001	5.46054E-005	0.00000E+000	-3.85000E-001	1.70825E-004	10	...........
	301	15.1	-3.74556E-001	4.51658E-005	0.00000E+000	-3.75000E-001	1.69591E-004	10	...........
	302	15.15	-3.64568E-001	4.00339E-005	0.00000E+000	-3.65000E-001	1.70725E-004	10	...........
	303	15.2	-3.54585E-001	3.44572E-005	0.00000E+000	-3.55000E-001	1.71558E-004	10	...........
	304	15.25	-3.44604E-001	3.11700E-005	0.00000E+000	-3.45000E-001	1.68057E-004	10	...........
	305	15.3	-3.34477E-001	2.85530E-005	0.00000E+000	-3.35000E-001	1.64956E-004	10	...........
	306	15.35	-3.24591E-001	2.66850E-005	0.00000E+000	-3.25000E-001	1.69791E-004	10	...........
	307	15.4	-3.14597E-001	2.42854E-005	0.00000E+000	-3.15000E-001	1.68724E-004	10	...........
	308	15.45	-3.04633E-001	2.35285E-005	0.00000E+000	-3.05000E-001	1.70391E-004	10	...........
	309	15.5	-2.94655E-001	2.23887E-005	0.00000E+000	-2.95000E-001	1.67524E-004	10	...........
	310	15.55	-2.84637E-001	2.25381E-005	0.00000E+000	-2.85000E-001	1.71292E-004	10	...........
	311	15.6	-2.74652E-001	2.27976E-005	0.00000E+000	-2.75000E-001	1.64023E-004	10	...........
	312	15.65	-2.64700E-001	2.35198E-005	0.00000E+000	-2.65000E-001	1.66957E-004	10	...........
	313	15.7	-2.54587E-001	2.44602E-005	0.00000E+000	-2.55000E-001	1.66157E-004	10	...........
	314	15.75	-2.44677E-001	2.63189E-005	0.00000E+000	-2.45000E-001	1.67624E-004	10	...........
	315	15.8	-2.34644E-001	2.73686E-005	0.00000E+000	-2.35000E-001	1.68057E-004	10	...........
	316	15.85	-2.24735E-001	2.92133E-005	0.00000E+000	-2.25000E-001	1.65690E-004	10	...........
	317	15.9	-2.14663E-001	3.05951E-005	0.00000E+000	-2.15000E-001	1.63956E-004	10	...........
	318	15.95	-2.04728E-001	3.25625E-005	0.00000E+000	-2.05000E-001	1.66790E-004	10	...........
	319	16	-1.94752E-001	3.43518E-005	0.00000E+000	-1.95000E-001	1.66690E-004	10	...........
	320	16.05	-1.84804E-001	3.65607E-005	0.00000E+000	-1.85000E-001	1.69624E-004	10	...........
	321	16.1	-1.74789E-001	3.76891E-005	0.00000E+000	-1.75000E-001	1.66590E-004	10	...........
	322	16.15	-1.64726E-001	3.89255E-005	0.00000E+000	-1.65000E-001	1.66590E-004	10	...........
	323	16.2	-1.54746E-001	4.00259E-005	0.00000E+000	-1.55000E-001	1.66624E-004	10	...........
	324	16.25	-1.44811E-001	4.12217E-005	0.00000E+000	-1.45000E-001	1.67724E-004	10	...........
	325	16.3	-1.34721E-001	4.16839E-005	0.00000E+000	-1.35000E-001	1.65223E-004	10	...........
	326	16.35	-1.24744E-001	4.17386E-005	0.00000E+000	-1.25000E-001	1.67757E-004	10	...........
	327	16.4	-1.14859E-001	4.16819E-005	0.00000E+000	-1.15000E-001	1.66090E-004	10	...........
	328	16.45	-1.04838E-001	4.21541E-005	0.00000E+000	-1.05000E-001	1.65623E-004	10	...........
	329	16.5	-9.48242E-002	4.13171E-005	0.00000E+000	-9.50000E-002	1.66223E-004	10	...........
	330	16.55	-8.47551E-002	4.05475E-005	0.00000E+000	-8.50000E-002	1.65923E-004	10	...........
	331	16.6	-7.48123E-002	3.97052E-005	0.00000E+000	-7.50000E-002	1.67190E-004	10	...........
	332	16.65	-6.48879E-002	3.87541E-005	0.00000E+000	-6.50000E-002	1.67957E-004	10	...........
	333	16.7	-5.48479E-002	3.78898E-005	0.00000E+000	-5.50000E-002	1.66490E-004	10	...........
	334	16.75	-4.47674E-002	3.70395E-005	0.00000E+000	-4.50000E-002	1.66423E-004	10	...........
	335	16.8	-3.48077E-002	3.57417E-005	0.00000E+000	-3.50000E-002	1.65090E-004	10	...........
	336	16.85	-2.49254E-002	3.48080E-005	0.00000E+000	-2.50000E-002	1.68157E-004	10	...........
	337	16.9	-1.49325E-002	3.34388E-005	0.00000E+000	-1.50000E-002	1.64490E-004	10	...........
	338	16.95	-4.75656E-003	3.22384E-005	0.00000E+000	-4.99999E-003	1.66824E-004	10	...........
	339	17	5.05566E-003	3.10933E-005	0.00000E+000	5.00001E-003	1.72059E-004	10	...........
	340	17.05	1.50362E-002	3.06845E-005	0.00000E+000	1.50000E-002	1.70758E-004	10	...........
	341	17.1	2.50659E-002	3.01990E-005	0.00000E+000	2.50000E-002	1.70558E-004	10	...........
	342	17.15	3.51228E-002	2.97781E-005	0.00000E+000	3.50000E-002	1.66524E-004	10	...........
	343	17.2	4.50499E-002	2.95301E-005	0.00000E+000	4.50000E-002	1.68357E-004	10	...........
	344	17.25	5.50288E-002	3.03664E-005	0.00000E+000	5.50000E-002	1.68357E-004	10	...........
	345	17.3	6.50084E-002	3.00002E-005	0.00000E+000	6.50000E-002	1.67457E-004	10	...........
	346	17.35	7.52061E-002	3.06211E-005	0.00000E+000	7.50000E-002	1.65123E-004	10	...........
	347	17.4	8.50325E-002	3.12420E-005	0.00000E+000	8.50000E-002	1.70258E-004	10	...........
	348	17.45	9.50183E-002	3.22004E-005	0.00000E+000	9.50000E-002	1.65957E-004	10	...........
	349	17.5	1.04988E-001	3.34548E-005	0.00000E+000	1.05000E-001	1.63589E-004	10	...........
	350	17.55	1.14979E-001	3.55129E-005	0.00000E+000	1.15000E-001	1.64556E-004	10	...........
	351	17.6	1.25004E-001	3.80625E-005	0.00000E+000	1.25000E-001	1.70458E-004	10	...........
	352	17.65	1.34981E-001	4.09029E-005	0.00000E+000	1.35000E-001	1.66557E-004	10	...........
	353	17.7	1.44924E-001	4.45249E-005	0.00000E+000	1.45000E-001	1.69124E-004	10	...........
	354	17.75	1.55155E-001	4.95601E-005	0.00000E+000	1.55000E-001	1.67591E-004	10	...........
	355	17.8	1.64981E-001	5.55284E-005	0.00000E+000	1.65000E-001	1.66690E-004	10	...........
	356	17.85	1.74973E-001	6.25403E-005	0.00000E+000	1.75000E-001	1.63689E-004	10	...........
	357	17.9	1.84950E-001	6.85772E-005	0.00000E+000	1.85000E-001	1.66457E-004	10	...........
	358	17.95	1.95064E-001	7.57398E-005	0.00000E+000	1.95000E-001	1.62356E-004	10	...........
	359	18	2.04892E-001	8.29765E-005	0.00000E+000	2.05000E-001	1.64856E-004	10	...........
	360	18.05	2.14904E-001	8.87987E-005	0.00000E+000	2.15000E-001	1.64223E-004	10	...........
	361	18.1	2.24833E-001	9.57239E-005	0.00000E+000	2.25000E-001	1.66524E-004	10	...........
	362	18.15	2.34907E-001	1.03411E-004	0.00000E+000	2.35000E-001	1.63556E-004	10	...........
	363	18.2	2.44897E-001	1.10269E-004	0.00000E+000	2.45000E-001	1.66724E-004	10	...........
	364	18.25	2.54874E-001	1.18002E-004	0.00000E+000	2.55000E-001	1.62789E-004	10	...........
	365	18.3	2.64852E-001	1.22394E-004	0.00000E+000	2.65000E-001	1.67290E-004	10	...........
	366	18.35	2.75005E-001	1.26788E-004	0.00000E+000	2.75000E-001	1.66757E-004	10	...........
	367	18.4	2.84867E-001	1.29161E-004	0.00000E+000	2.85000E-001	1.66457E-004	10	...........
	368	18.45	2.94817E-001	1.32257E-004	0.00000E+000	2.95000E-001	1.65290E-004	10	...........
	369	18.5	3.04770E-001	1.33591E-004	0.00000E+000	3.05000E-001	1.70491E-004	10	...........
	370	18.55	3.14844E-001	1.35601E-004	0.00000E+000	3.15000E-001	1.68191E-004	10	...........
	371	18.6	3.24852E-001	1.37764E-004	0.00000E+000	3.25000E-001	1.65823E-004	10	...........
	372	18.65	3.34827E-001	1.38592E-004	0.00000E+000	3.35000E-001	1.66123E-004	10	...........
	373	18.7	3.44772E-001	1.39298E-004	0.00000E+000	3.45000E-001	1.65823E-004	10	...........
	374	18.75	3.54839E-001	1.41628E-004	0.00000E+000	3.55000E-001	1.65690E-004	10	...........
	375	18.8	3.64848E-001	1.43076E-004	0.00000E+000	3.65000E-001	1.65523E-004	10	...........
	376	18.85	3.74825E-001	1.45008E-004	0.00000E+000	3.75000E-001	1.65256E-004	10	...........
	377	18.9	3.84695E-001	1.45893E-004	0.00000E+000	3.85000E-001	1.65323E-004	10	...........
	378	18.95	3.94758E-001	1.47010E-004	0.00000E+000	3.95000E-001	1.60422E-004	10	...........
	379	19	4.04840E-001	1.50426E-004	0.00000E+000	4.05000E-001	1.59855E-004	10	...........
	380	19.05	4.14762E-001	1.47198E-004	0.00000E+000	4.15000E-001	1.60455E-004	10	...........
	381	19.1	4.24642E-001	1.46605E-004	0.00000E+000	4.25000E-001	1.67857E-004	10	...........
	382	19.15	4.34765E-001	1.47384E-004	0.00000E+000	4.35000E-001	1.64123E-004	10	...........
	383	19.2	4.44824E-001	1.47639E-004	0.00000E+000	4.45000E-001	1.66957E-004	10	...........
	384	19.25	4.54750E-001	1.46538E-004	0.00000E+000	4.55000E-001	1.64056E-004	10	...........
	385	19.3	4.64650E-001	1.46357E-004	0.00000E+000	4.65000E-001	1.67424E-004	10	...........
	386	19.35	4.74940E-001	1.46934E-004	0.00000E+000	4.75000E-001	1.66524E-004	10	...........
	387	19.4	4.84834E-001	1.47866E-004	0.00000E+000	4.85000E-001	1.63623E-004	10	...........
	388	19.45	4.94711E-001	1.49098E-004	0.00000E+000	4.95000E-001	1.65090E-004	10	...........
	389	19.5	5.04637E-001	1.51290E-004	0.00000E+000	5.05000E-001	1.65823E-004	10	...........
	390	19.55	5.14660E-001	1.52426E-004	0.00000E+000	5.15000E-001	1.67557E-004	10	...........
	391	19.6	5.24736E-001	1.54132E-004	0.00000E+000	5.25000E-001	1.65990E-004	10	...........
	392	19.65	5.34707E-001	1.56582E-004	0.00000E+000	5.35000E-001	1.66423E-004	10	...........
	393	19.7	5.44637E-001	1.59151E-004	0.00000E+000	5.45000E-001	1.66857E-004	10	...........
	394	19.75	5.54639E-001	1.60833E-004	0.00000E+000	5.55000E-001	1.67324E-004	10	...........
	395	19.8	5.64821E-001	1.63286E-004	0.00000E+000	5.65000E-001	1.65923E-004	10	...........
	396	19.85	5.74646E-001	1.67674E-004	0.00000E+000	5.75000E-001	1.69124E-004	10	...........
	397	19.9	5.84625E-001	1.68254E-004	0.00000E+000	5.85000E-001	1.70058E-004	10	...........
	398	19.95	5.94630E-001	1.71025E-004	0.00000E+000	5.95000E-001	1.66490E-004	10	...........
[...]
	2970	148.55	8.74360E-001	1.98277E-004	0.00000E+000	8.75000E-001	1.65156E-004	10	...........
	2971	148.6	8.84640E-001	2.07163E-004	0.00000E+000	8.85000E-001	1.61955E-004	10	...........
	2972	148.65	8.94445E-001	2.18207E-004	0.00000E+000	8.95000E-001	1.63222E-004	10	...........
	2973	148.7	8.84831E-001	1.32051E-004	0.00000E+000	8.85000E-001	1.62522E-004	10	...........
	2974	148.75	8.74489E-001	9.23020E-005	0.00000E+000	8.75000E-001	1.64023E-004	10	...........
	2975	148.8	8.64535E-001	6.80670E-005	0.00000E+000	8.65000E-001	1.56654E-004	10	...........
	2976	148.85	8.54536E-001	5.06039E-005	0.00000E+000	8.55000E-001	1.62756E-004	10	...........
	2977	148.9	8.44564E-001	3.88055E-005	0.00000E+000	8.45000E-001	1.54353E-004	10	...........
	2978	148.95	8.34483E-001	3.02076E-005	0.00000E+000	8.35000E-001	1.62889E-004	10	...........
	2979	149	8.24544E-001	2.87744E-005	0.00000E+000	8.25000E-001	1.56187E-004	10	...........
	2980	149.05	8.14560E-001	1.92196E-005	0.00000E+000	8.15000E-001	1.62122E-004	10	...........
	2981	149.1	8.04489E-001	1.51754E-005	0.00000E+000	8.05000E-001	1.59688E-004	10	...........
	2982	149.15	7.94468E-001	1.23857E-005	0.00000E+000	7.95000E-001	1.64323E-004	10	...........
	2983	149.2	7.84583E-001	1.74763E-005	0.00000E+000	7.85000E-001	1.59755E-004	10	...........
	2984	149.25	7.74588E-001	8.51093E-006	0.00000E+000	7.75000E-001	1.63989E-004	10	...........
	2985	149.3	7.64650E-001	7.23713E-006	0.00000E+000	7.65000E-001	1.58221E-004	10	...........
	2986	149.35	7.54521E-001	1.06971E-005	0.00000E+000	7.55000E-001	1.59888E-004	10	...........
	2987	149.4	7.44578E-001	5.28640E-006	0.00000E+000	7.45000E-001	1.59488E-004	10	...........
	2988	149.45	7.34612E-001	4.26469E-006	0.00000E+000	7.35000E-001	1.62322E-004	10	...........
	2989	149.5	7.24624E-001	3.40104E-006	0.00000E+000	7.25000E-001	1.58121E-004	10	...........
	2990	149.55	7.14625E-001	3.07092E-006	0.00000E+000	7.15000E-001	1.65290E-004	10	...........
	2991	149.6	7.04615E-001	2.10656E-006	0.00000E+000	7.05000E-001	1.62389E-004	10	...........
	2992	149.65	6.94632E-001	9.09447E-007	0.00000E+000	6.95000E-001	1.65423E-004	10	...........
	2993	149.7	6.84842E-001	7.46054E-007	0.00000E+000	6.85000E-001	1.61355E-004	10	...........
	2994	149.75	6.74635E-001	-8.51872E-007	0.00000E+000	6.75000E-001	1.67524E-004	10	...........
	2995	149.8	6.64642E-001	-1.10597E-006	0.00000E+000	6.65000E-001	1.66524E-004	10	...........
	2996	149.85	6.54675E-001	-2.31041E-006	0.00000E+000	6.55000E-001	1.66524E-004	10	...........
	2997	149.9	6.44733E-001	-2.73390E-006	0.00000E+000	6.45000E-001	1.62022E-004	10	...........
	2998	149.95	6.34677E-001	-4.06706E-006	0.00000E+000	6.35000E-001	1.68324E-004	10	...........
	2999	150	6.24669E-001	-4.88403E-006	0.00000E+000	6.25000E-001	1.62289E-004	10	...........
	3000	150.05	6.14668E-001	-5.83038E-006	0.00000E+000	6.15000E-001	1.66323E-004	10	...........
	3001	150.1	6.04875E-001	-6.46262E-006	0.00000E+000	6.05000E-001	1.62089E-004	10	...........
	3002	150.15	5.94675E-001	-7.37229E-006	0.00000E+000	5.95000E-001	1.62456E-004	10	...........
	3003	150.2	5.84705E-001	-7.59237E-006	0.00000E+000	5.85000E-001	1.64490E-004	10	...........
	3004	150.25	5.74698E-001	-9.15295E-006	0.00000E+000	5.75000E-001	1.64456E-004	10	...........
	3005	150.3	5.64874E-001	-9.82186E-006	0.00000E+000	5.65000E-001	1.60355E-004	10	...........
	3006	150.35	5.54677E-001	-1.12377E-005	0.00000E+000	5.55000E-001	1.62289E-004	10	...........
	3007	150.4	5.44665E-001	-1.18139E-005	0.00000E+000	5.45000E-001	1.57554E-004	10	...........
	3008	150.45	5.34768E-001	-1.28403E-005	0.00000E+000	5.35000E-001	1.60021E-004	10	...........
	3009	150.5	5.24716E-001	-1.35006E-005	0.00000E+000	5.25000E-001	1.62155E-004	10	...........
	3010	150.55	5.14671E-001	-1.46270E-005	0.00000E+000	5.15000E-001	1.60888E-004	10	...........
	3011	150.6	5.04713E-001	-1.49384E-005	0.00000E+000	5.05000E-001	1.58354E-004	10	...........
	3012	150.65	4.94760E-001	-1.61042E-005	0.00000E+000	4.95000E-001	1.61855E-004	10	...........
	3013	150.7	4.84876E-001	-1.69979E-005	0.00000E+000	4.85000E-001	1.59255E-004	10	...........
	3014	150.75	4.74708E-001	-1.82316E-005	0.00000E+000	4.75000E-001	1.64023E-004	10	...........
	3015	150.8	4.64728E-001	-1.85911E-005	0.00000E+000	4.65000E-001	1.64523E-004	10	...........
	3016	150.85	4.54793E-001	-2.02391E-005	0.00000E+000	4.55000E-001	1.60288E-004	10	...........
	3017	150.9	4.44829E-001	-2.09573E-005	0.00000E+000	4.45000E-001	1.62122E-004	10	...........
	3018	150.95	4.34791E-001	-2.22525E-005	0.00000E+000	4.35000E-001	1.60788E-004	10	...........
	3019	151	4.24722E-001	-2.29681E-005	0.00000E+000	4.25000E-001	1.65123E-004	10	...........
	3020	151.05	4.14805E-001	-2.41412E-005	0.00000E+000	4.15000E-001	1.60488E-004	10	...........
	3021	151.1	4.04920E-001	-2.51849E-005	0.00000E+000	4.05000E-001	1.64723E-004	10	...........
	3022	151.15	3.94813E-001	-2.74191E-005	0.00000E+000	3.95000E-001	1.60888E-004	10	...........
	3023	151.2	3.84763E-001	-2.82460E-005	0.00000E+000	3.85000E-001	1.63589E-004	10	...........
	3024	151.25	3.74907E-001	-3.02234E-005	0.00000E+000	3.75000E-001	1.62656E-004	10	...........
	3025	151.3	3.64915E-001	-3.13645E-005	0.00000E+000	3.65000E-001	1.61722E-004	10	...........
	3026	151.35	3.54875E-001	-3.39581E-005	0.00000E+000	3.55000E-001	1.63523E-004	10	...........
	3027	151.4	3.44836E-001	-3.52406E-005	0.00000E+000	3.45000E-001	1.62589E-004	10	...........
	3028	151.45	3.34904E-001	-3.73467E-005	0.00000E+000	3.35000E-001	1.60655E-004	10	...........
	3029	151.5	3.24925E-001	-3.94322E-005	0.00000E+000	3.25000E-001	1.60988E-004	10	...........
	3030	151.55	3.14876E-001	-4.19424E-005	0.00000E+000	3.15000E-001	1.60655E-004	10	...........
	3031	151.6	3.04848E-001	-4.37151E-005	0.00000E+000	3.05000E-001	1.65056E-004	10	...........
	3032	151.65	2.94848E-001	-4.67636E-005	0.00000E+000	2.95000E-001	1.59288E-004	10	...........
	3033	151.7	2.84936E-001	-4.91131E-005	0.00000E+000	2.85000E-001	1.64790E-004	10	...........
	3034	151.75	2.75012E-001	-5.30279E-005	0.00000E+000	2.75000E-001	1.58321E-004	10	...........
	3035	151.8	2.64897E-001	-5.60797E-005	0.00000E+000	2.65000E-001	1.65290E-004	10	...........
	3036	151.85	2.54943E-001	-5.98811E-005	0.00000E+000	2.55000E-001	1.58854E-004	10	...........
	3037	151.9	2.44952E-001	-6.45181E-005	0.00000E+000	2.45000E-001	1.64890E-004	10	...........
	3038	151.95	2.34942E-001	-6.89184E-005	0.00000E+000	2.35000E-001	1.64856E-004	10	...........
	3039	152	2.24921E-001	-7.35521E-005	0.00000E+000	2.25000E-001	1.62822E-004	10	...........
	3040	152.05	2.14949E-001	-7.96457E-005	0.00000E+000	2.15000E-001	1.64156E-004	10	...........
	3041	152.1	2.04962E-001	-8.56620E-005	0.00000E+000	2.05000E-001	1.64323E-004	10	...........
	3042	152.15	1.95107E-001	-9.33001E-005	0.00000E+000	1.95000E-001	1.64823E-004	10	...........
	3043	152.2	1.84978E-001	-1.01436E-004	0.00000E+000	1.85000E-001	1.66790E-004	10	...........
	3044	152.25	1.75041E-001	-1.10963E-004	0.00000E+000	1.75000E-001	1.66690E-004	10	...........
	3045	152.3	1.65016E-001	-1.21134E-004	0.00000E+000	1.65000E-001	1.67457E-004	10	...........
	3046	152.35	1.55209E-001	-1.33492E-004	0.00000E+000	1.55000E-001	1.62356E-004	10	...........
	3047	152.4	1.44995E-001	-1.46457E-004	0.00000E+000	1.45000E-001	1.67257E-004	10	...........
	3048	152.45	1.35032E-001	-1.61798E-004	0.00000E+000	1.35000E-001	1.65190E-004	10	...........
	3049	152.5	1.25085E-001	-1.78490E-004	0.00000E+000	1.25000E-001	1.65557E-004	10	...........
	3050	152.55	1.15042E-001	-1.98306E-004	0.00000E+000	1.15000E-001	1.63623E-004	10	...........
	3051	152.6	1.05053E-001	-2.19432E-004	0.00000E+000	1.05000E-001	1.69324E-004	10	...........
	3052	152.65	9.50941E-002	-2.42286E-004	0.00000E+000	9.50000E-002	1.68991E-004	10	...........
	3053	152.7	8.51124E-002	-2.65994E-004	0.00000E+000	8.50000E-002	1.70825E-004	10	...........
	3054	152.75	7.52718E-002	-2.91662E-004	0.00000E+000	7.50000E-002	1.64723E-004	10	...........
	3055	152.8	6.50434E-002	-3.13644E-004	0.00000E+000	6.50000E-002	1.68324E-004	10	...........
	3056	152.85	5.51045E-002	-3.34079E-004	0.00000E+000	5.50000E-002	1.68958E-004	10	...........
	3057	152.9	4.51372E-002	-3.52547E-004	0.00000E+000	4.50000E-002	1.67457E-004	10	...........
	3058	152.95	3.51543E-002	-3.61059E-004	0.00000E+000	3.50000E-002	1.67224E-004	10	...........
	3059	153	2.51253E-002	-3.61418E-004	0.00000E+000	2.50000E-002	1.71158E-004	10	...........
	3060	153.05	1.51131E-002	-3.48798E-004	0.00000E+000	1.50000E-002	1.70825E-004	10	...........
	3061	153.1	5.11761E-003	-3.31711E-004	0.00000E+000	5.00001E-003	1.68557E-004	10	...........
	3062	153.15	-4.70758E-003	-3.09207E-004	0.00000E+000	-4.99999E-003	1.64289E-004	10	...........
	3063	153.2	-1.48424E-002	-2.81817E-004	0.00000E+000	-1.50000E-002	1.62489E-004	10	...........
	3064	153.25	-2.48537E-002	-2.53053E-004	0.00000E+000	-2.50000E-002	1.62656E-004	10	...........
	3065	153.3	-3.47518E-002	-2.23886E-004	0.00000E+000	-3.50000E-002	1.63589E-004	10	...........
	3066	153.35	-4.47236E-002	-1.97027E-004	0.00000E+000	-4.50000E-002	1.62889E-004	10	...........
	3067	153.4	-5.48030E-002	-1.76552E-004	0.00000E+000	-5.50000E-002	1.64123E-004	10	...........
	3068	153.45	-6.48063E-002	-1.47776E-004	0.00000E+000	-6.50000E-002	1.64189E-004	10	...........
	3069	153.5	-7.47585E-002	-1.26917E-004	0.00000E+000	-7.50000E-002	1.63789E-004	10	...........
	3070	153.55	-8.47120E-002	-1.09055E-004	0.00000E+000	-8.50000E-002	1.60955E-004	10	...........
	3071	153.6	-9.47872E-002	-9.38723E-005	0.00000E+000	-9.50000E-002	1.62689E-004	10	...........
	3072	153.65	-1.04796E-001	-8.01679E-005	0.00000E+000	-1.05000E-001	1.66057E-004	10	...........
	3073	153.7	-1.14798E-001	-6.74245E-005	0.00000E+000	-1.15000E-001	1.60622E-004	10	...........
	3074	153.75	-1.24689E-001	-5.73135E-005	0.00000E+000	-1.25000E-001	1.61489E-004	10	...........
	3075	153.8	-1.34709E-001	-4.79267E-005	0.00000E+000	-1.35000E-001	1.59755E-004	10	...........
	3076	153.85	-1.44737E-001	-3.89900E-005	0.00000E+000	-1.45000E-001	1.61555E-004	10	...........
	3077	153.9	-1.54687E-001	-3.16813E-005	0.00000E+000	-1.55000E-001	1.57054E-004	10	...........
	3078	153.95	-1.64691E-001	-2.64700E-005	0.00000E+000	-1.65000E-001	1.59921E-004	10	...........
	3079	154	-1.74726E-001	-2.08673E-005	0.00000E+000	-1.75000E-001	1.54553E-004	10	...........
	3080	154.05	-1.84743E-001	-1.69932E-005	0.00000E+000	-1.85000E-001	1.59955E-004	10	...........
	3081	154.1	-1.94695E-001	-1.43495E-005	0.00000E+000	-1.95000E-001	1.61722E-004	10	...........
	3082	154.15	-2.04670E-001	-1.25862E-005	0.00000E+000	-2.05000E-001	1.65690E-004	10	...........
	3083	154.2	-2.14610E-001	-1.13358E-005	0.00000E+000	-2.15000E-001	1.60788E-004	10	...........
	3084	154.25	-2.24660E-001	-1.12664E-005	0.00000E+000	-2.25000E-001	1.64523E-004	10	...........
	3085	154.3	-2.34594E-001	-1.08276E-005	0.00000E+000	-2.35000E-001	1.60288E-004	10	...........
	3086	154.35	-2.44624E-001	-1.15325E-005	0.00000E+000	-2.45000E-001	1.65223E-004	10	...........
	3087	154.4	-2.54559E-001	-1.14331E-005	0.00000E+000	-2.55000E-001	1.62389E-004	10	...........
	3088	154.45	-2.64686E-001	-1.25302E-005	0.00000E+000	-2.65000E-001	1.67424E-004	10	...........
	3089	154.5	-2.74622E-001	-1.28150E-005	0.00000E+000	-2.75000E-001	1.59455E-004	10	...........
	3090	154.55	-2.84568E-001	-1.45176E-005	0.00000E+000	-2.85000E-001	1.62889E-004	10	...........
	3091	154.6	-2.94609E-001	-1.41828E-005	0.00000E+000	-2.95000E-001	1.62789E-004	10	...........
	3092	154.65	-3.04614E-001	-1.77048E-005	0.00000E+000	-3.05000E-001	1.62922E-004	10	...........
	3093	154.7	-3.14547E-001	-2.01277E-005	0.00000E+000	-3.15000E-001	1.63789E-004	10	...........
	3094	154.75	-3.24559E-001	-1.87145E-005	0.00000E+000	-3.25000E-001	1.65323E-004	10	...........
	3095	154.8	-3.34488E-001	-2.06545E-005	0.00000E+000	-3.35000E-001	1.61455E-004	10	...........
	3096	154.85	-3.44581E-001	-2.35510E-005	0.00000E+000	-3.45000E-001	1.64690E-004	10	...........
	3097	154.9	-3.54527E-001	-2.66581E-005	0.00000E+000	-3.55000E-001	1.63856E-004	10	...........
	3098	154.95	-3.64524E-001	-3.14472E-005	0.00000E+000	-3.65000E-001	1.64590E-004	10	...........
	3099	155	-3.74535E-001	-3.53727E-005	0.00000E+000	-3.75000E-001	1.64423E-004	10	...........
	3100	155.05	-3.84526E-001	-4.16957E-005	0.00000E+000	-3.85000E-001	1.64856E-004	10	...........
	3101	155.1	-3.94503E-001	-4.97046E-005	0.00000E+000	-3.95000E-001	1.63489E-004	10	...........
	3102	155.15	-4.04510E-001	-5.77063E-005	0.00000E+000	-4.05000E-001	1.60622E-004	10	...........
	3103	155.2	-4.14330E-001	-6.89491E-005	0.00000E+000	-4.15000E-001	1.63056E-004	10	...........
	3104	155.25	-4.24526E-001	-8.74386E-005	0.00000E+000	-4.25000E-001	1.62155E-004	10	...........
	3105	155.3	-4.34498E-001	-1.04560E-004	0.00000E+000	-4.35000E-001	1.66757E-004	10	...........
	3106	155.35	-4.44432E-001	-1.29558E-004	0.00000E+000	-4.45000E-001	1.64289E-004	10	...........
	3107	155.4	-4.54396E-001	-1.41805E-004	0.00000E+000	-4.55000E-001	1.61955E-004	10	...........
	3108	155.45	-4.64495E-001	-1.48621E-004	0.00000E+000	-4.65000E-001	1.66390E-004	10	...........
	3109	155.5	-4.74490E-001	-1.48341E-004	0.00000E+000	-4.75000E-001	1.62489E-004	10	...........
	3110	155.55	-4.84435E-001	-1.49945E-004	0.00000E+000	-4.85000E-001	1.66123E-004	10	...........
	3111	155.6	-4.94320E-001	-1.43466E-004	0.00000E+000	-4.95000E-001	1.61922E-004	10	...........
	3112	155.65	-5.04467E-001	-1.36575E-004	0.00000E+000	-5.05000E-001	1.63289E-004	10	...........
	3113	155.7	-5.14448E-001	-1.30217E-004	0.00000E+000	-5.15000E-001	1.65123E-004	10	...........
	3114	155.75	-5.24456E-001	-1.33407E-004	0.00000E+000	-5.25000E-001	1.61622E-004	10	...........
	3115	155.8	-5.34306E-001	-1.36999E-004	0.00000E+000	-5.35000E-001	1.62622E-004	10	...........
	3116	155.85	-5.44415E-001	-1.54183E-004	0.00000E+000	-5.45000E-001	1.60221E-004	10	...........
	3117	155.9	-5.54410E-001	-1.81942E-004	0.00000E+000	-5.55000E-001	1.64023E-004	10	...........
	3118	155.95	-5.64360E-001	-2.33698E-004	0.00000E+000	-5.65000E-001	1.60322E-004	10	...........
	3119	156	-5.74314E-001	-2.78665E-004	0.00000E+000	-5.75000E-001	1.61789E-004	10	...........
	3120	156.05	-5.84419E-001	-3.00574E-004	0.00000E+000	-5.85000E-001	1.58188E-004	10	...........
	3121	156.1	-5.94424E-001	-2.72415E-004	0.00000E+000	-5.95000E-001	1.62289E-004	10	...........
	3122	156.15	-6.04382E-001	-2.48495E-004	0.00000E+000	-6.05000E-001	1.61355E-004	10	...........
	3123	156.2	-6.14280E-001	-2.20160E-004	0.00000E+000	-6.15000E-001	1.64423E-004	10	...........
	3124	156.25	-6.24368E-001	-2.15294E-004	0.00000E+000	-6.25000E-001	1.63289E-004	10	...........
	3125	156.3	-6.34362E-001	-1.98818E-004	0.00000E+000	-6.35000E-001	1.64923E-004	10	...........
	3126	156.35	-6.44279E-001	-2.04821E-004	0.00000E+000	-6.45000E-001	1.61555E-004	10	...........
	3127	156.4	-6.54315E-001	-2.23416E-004	0.00000E+000	-6.55000E-001	1.61322E-004	10	...........
	3128	156.45	-6.64292E-001	-2.82506E-004	0.00000E+000	-6.65000E-001	1.59855E-004	10	...........
	3129	156.5	-6.74386E-001	-3.90370E-004	0.00000E+000	-6.75000E-001	1.65456E-004	10	...........
	3130	156.55	-6.84323E-001	-6.41683E-004	0.00000E+000	-6.85000E-001	1.60088E-004	10	...........
	3131	156.6	-6.94236E-001	-1.12282E-003	0.00000E+000	-6.95000E-001	1.64990E-004	10	...........
CURVE11	TABLE
	Pt	T	Vf	Im	Vu	Sig	Ach	IERange	Over
	#	s	V vs. Ref.	A	V	V	V	#	bits
	3132	156.65	-6.84374E-001	-8.48003E-005	0.00000E+000	-6.85000E-001	1.59155E-004	10	...........
	3133	156.7	-6.74476E-001	4.08109E-005	0.00000E+000	-6.75000E-001	1.66590E-004	10	...........
	3134	156.75	-6.64380E-001	8.20795E-005	0.00000E+000	-6.65000E-001	1.60355E-004	10	...........
	3135	156.8	-6.54390E-001	1.01450E-004	0.00000E+000	-6.55000E-001	1.61922E-004	10	...........
	3136	156.85	-6.44348E-001	1.09570E-004	0.00000E+000	-6.45000E-001	1.58354E-004	10	...........
	3137	156.9	-6.34416E-001	1.14767E-004	0.00000E+000	-6.35000E-001	1.55987E-004	10	...........
	3138	156.95	-6.24419E-001	1.33334E-004	0.00000E+000	-6.25000E-001	1.56887E-004	10	...........
	3139	157	-6.14358E-001	1.49849E-004	0.00000E+000	-6.15000E-001	1.59955E-004	10	...........
	3140	157.05	-6.04441E-001	1.62652E-004	0.00000E+000	-6.05000E-001	1.59555E-004	10	...........
	3141	157.1	-5.94501E-001	1.87696E-004	0.00000E+000	-5.95000E-001	1.62822E-004	10	...........
	3142	157.15	-5.84485E-001	2.10200E-004	0.00000E+000	-5.85000E-001	1.58321E-004	10	...........
	3143	157.2	-5.74363E-001	2.40347E-004	0.00000E+000	-5.75000E-001	1.59988E-004	10	...........
	3144	157.25	-5.64429E-001	2.37765E-004	0.00000E+000	-5.65000E-001	1.59688E-004	10	...........
	3145	157.3	-5.54482E-001	2.03863E-004	0.00000E+000	-5.55000E-001	1.61855E-004	10	...........
	3146	157.35	-5.44464E-001	1.60033E-004	0.00000E+000	-5.45000E-001	1.57254E-004	10	...........
	3147	157.4	-5.34363E-001	1.35539E-004	0.00000E+000	-5.35000E-001	1.56187E-004	10	...........
	3148	157.45	-5.24512E-001	1.16876E-004	0.00000E+000	-5.25000E-001	1.57521E-004	10	...........
	3149	157.5	-5.14529E-001	1.13712E-004	0.00000E+000	-5.15000E-001	1.61722E-004	10	...........
	3150	157.55	-5.04511E-001	1.13183E-004	0.00000E+000	-5.05000E-001	1.62489E-004	10	...........
	3151	157.6	-4.94375E-001	1.22188E-004	0.00000E+000	-4.95000E-001	1.63322E-004	10	...........
	3152	157.65	-4.84501E-001	1.25992E-004	0.00000E+000	-4.85000E-001	1.63589E-004	10	...........
	3153	157.7	-4.74559E-001	1.29968E-004	0.00000E+000	-4.75000E-001	1.59421E-004	10	...........
	3154	157.75	-4.64533E-001	1.30330E-004	0.00000E+000	-4.65000E-001	1.61955E-004	10	...........
	3155	157.8	-4.54419E-001	1.45212E-004	0.00000E+000	-4.55000E-001	1.60488E-004	10	...........
	3156	157.85	-4.44503E-001	1.61574E-004	0.00000E+000	-4.45000E-001	1.62556E-004	10	...........
	3157	157.9	-4.34560E-001	1.77788E-004	0.00000E+000	-4.35000E-001	1.63923E-004	10	...........
	3158	157.95	-4.24608E-001	1.62365E-004	0.00000E+000	-4.25000E-001	1.62189E-004	10	...........
	3159	158	-4.14372E-001	1.30652E-004	0.00000E+000	-4.15000E-001	1.59955E-004	10	...........
	3160	158.05	-4.04569E-001	9.00438E-005	0.00000E+000	-4.05000E-001	1.64723E-004	10	...........
	3161	158.1	-3.94569E-001	6.67832E-005	0.00000E+000	-3.95000E-001	1.63656E-004	10	...........
	3162	158.15	-3.84561E-001	5.09940E-005	0.00000E+000	-3.85000E-001	1.61389E-004	10	...........
	3163	158.2	-3.74561E-001	4.42348E-005	0.00000E+000	-3.75000E-001	1.61622E-004	10	...........
	3164	158.25	-3.64574E-001	3.88802E-005	0.00000E+000	-3.65000E-001	1.61989E-004	10	...........
	3165	158.3	-3.54584E-001	3.64533E-005	0.00000E+000	-3.55000E-001	1.65590E-004	10	...........
	3166	158.35	-3.44600E-001	3.23898E-005	0.00000E+000	-3.45000E-001	1.64656E-004	10	...........
	3167	158.4	-3.34483E-001	3.04717E-005	0.00000E+000	-3.35000E-001	1.58821E-004	10	...........
	3168	158.45	-3.24592E-001	2.74626E-005	0.00000E+000	-3.25000E-001	1.61155E-004	10	...........
	3169	158.5	-3.14603E-001	2.33251E-005	0.00000E+000	-3.15000E-001	1.56087E-004	10	...........
	3170	158.55	-3.04641E-001	2.34905E-005	0.00000E+000	-3.05000E-001	1.62155E-004	10	...........
	3171	158.6	-2.94662E-001	2.34131E-005	0.00000E+000	-2.95000E-001	1.59321E-004	10	...........
	3172	158.65	-2.84633E-001	2.28903E-005	0.00000E+000	-2.85000E-001	1.62222E-004	10	...........
	3173	158.7	-2.74658E-001	2.32437E-005	0.00000E+000	-2.75000E-001	1.59521E-004	10	...........
	3174	158.75	-2.64707E-001	2.37639E-005	0.00000E+000	-2.65000E-001	1.62989E-004	10	...........
	3175	158.8	-2.54594E-001	2.53105E-005	0.00000E+000	-2.55000E-001	1.62689E-004	10	...........
	3176	158.85	-2.44673E-001	2.64109E-005	0.00000E+000	-2.45000E-001	1.60722E-004	10	...........
	3177	158.9	-2.34647E-001	2.86144E-005	0.00000E+000	-2.35000E-001	1.63389E-004	10	...........
	3178	158.95	-2.24732E-001	2.96528E-005	0.00000E+000	-2.25000E-001	1.61655E-004	10	...........
	3179	159	-2.14665E-001	3.17629E-005	0.00000E+000	-2.15000E-001	1.60588E-004	10	...........
	3180	159.05	-2.04723E-001	3.38083E-005	0.00000E+000	-2.05000E-001	1.62956E-004	10	...........