File: 20190222 HUPD/CV_test_1.DTA
EXPLAIN
TAG	CV
TITLE	LABEL	CV	Test &Identifier
DATE	LABEL	2/22/2019	Date
TIME	LABEL	10:49:54	Time
NOTES	NOTES	2	&Notes...
	0.5 M H2SO4
	Pt-wire CE
PSTAT	PSTAT	REF600-16093	Potentiostat
VINIT	POTEN	0.00000E+000	T	Initial &E (V)
VLIMIT1	POTEN	7.00000E-001	F	Scan Limit &1 (V)
VLIMIT2	POTEN	-6.80000E-001	F	Scan Limit &2 (V)
VFINAL	POTEN	0.00000E+000	T	Final &E (V)
SCANRATE	QUANT	9.99998E+001	&Scan Rate (mV/s)
STEPSIZE	QUANT	1.00000E+001	St&ep Size (mV)
CYCLES	IQUANT	10	C&ycles (#)
IMODE	SELECTOR	1	I/E Range &Mode
IRANGE	QUANT	1.00000E+000	&Max Current (mA)
AREA	QUANT	1.00000E+000	Electrode &Area (cm^2)
ELECTRODETYPE	SELECTOR	0	Electrode Type
STRIPPING	TOGGLE	F	Used for Stripping
POLARITY	TOGGLE	F	Signal Polarity
CONDIT	TWOPARAM	F	1.50000E+001	0.00000E+000	Conditionin&g	Time(s)	E(V)
DELAY	TWOPARAM	T	5.00000E+000	0.00000E+000	Init. De&lay	Time(s)	Stab.(mV/s)
EQDELAY	QUANT	5.00000E+000	Equil. &Time (s)
IRCOMP	SELECTOR	0	IRCom&p
PFCOR	QUANT	0.00000E+000	PF Corr. (ohm)
SAMPLINGMODE	SELECTOR	2	Sampling &Mode
OCVCURVE	TABLE	20
	Pt	T	Vf	Vm	Ach	Over
	#	s	V vs. Ref.	V	V	bits
	0	0.25	1.21166E-001	1.21166E-001	5.76931E-005	...........
	1	0.5	1.21166E-001	1.21159E-001	6.67930E-005	...........
	2	0.75	1.21166E-001	1.21160E-001	6.53263E-005	...........
	3	1	1.21164E-001	1.21160E-001	6.37930E-005	...........
	4	1.25	1.21162E-001	1.21156E-001	6.11264E-005	...........
	5	1.5	1.21161E-001	1.21153E-001	6.74929E-005	...........
	6	1.75	1.21159E-001	1.21151E-001	6.59263E-005	...........
	7	2	1.21156E-001	1.21150E-001	6.63930E-005	...........
	8	2.25	1.21154E-001	1.21150E-001	6.79596E-005	...........
	9	2.5	1.21152E-001	1.21147E-001	6.88263E-005	...........
	10	2.75	1.21150E-001	1.21146E-001	6.47930E-005	...........
	11	3	1.21149E-001	1.21143E-001	6.47597E-005	...........
	12	3.25	1.21147E-001	1.21142E-001	6.45263E-005	...........
	13	3.5	1.21146E-001	1.21140E-001	6.46930E-005	...........
	14	3.75	1.21144E-001	1.21134E-001	6.07930E-005	...........
	15	4	1.21142E-001	1.21134E-001	6.27930E-005	...........
	16	4.25	1.21139E-001	1.21131E-001	6.38597E-005	...........
	17	4.5	1.21136E-001	1.21130E-001	6.14930E-005	...........
	18	4.75	1.21134E-001	1.21129E-001	6.00264E-005	...........
	19	5	1.21132E-001	1.21129E-001	6.01931E-005	...........
EOC	QUANT	0.1211317	Open Circuit (V)
PSTATMODEL	IQUANT	4	Pstat Model
PSTATSECTION	LABEL	REF600-16093	Pstat Section
PSTATSERIALNO	LABEL	16093	Pstat Serial Number
CTRLMODE	IQUANT	1	Control Mode
IESTAB	IQUANT	2	I/E Stability
CASPEED	IQUANT	2	Control Amp Speed
CONVENTION	IQUANT	1	Current Convention
ICHRANGE	IQUANT	2	Ich Range
ICHRANGEMODE	TOGGLE	F	Ich Auto Range
ICHOFFSETENABLE	TOGGLE	F	Ich Offset Enable
ICHOFFSET	QUANT	0	Ich Offset (V)
ICHFILTER	IQUANT	2	Ich Filter
VCHRANGE	IQUANT	2	Vch Range
VCHRANGEMODE	TOGGLE	F	Vch Auto Range
VCHOFFSETENABLE	TOGGLE	F	Vch Offset Enable
VCHOFFSET	QUANT	0	Vch Offset (V)
VCHFILTER	IQUANT	2	Vch Filter
ACHRANGE	IQUANT	2	Ach Range
ACHOFFSETENABLE	TOGGLE	F	Ach Offset Enable
ACHOFFSET	QUANT	0	Ach Offset (V)
ACHFILTER	IQUANT	1	Ach Filter
IERANGELOWERLIMIT	IQUANT	1	I/E Range Lower Limit
IERANGEMODE	TOGGLE	F	I/E AutoRange
IERANGE	IQUANT	9	I/E Range
POSFEEDENABLE	TOGGLE	F	Positive Feedback IR Comp
POSFEEDRESISTANCE	QUANT	0	Positive Feedback Resistance (ohm)
ACHSELECT	IQUANT	0	Ach Select
CABLEID	IQUANT	14	Cable ID
DCCALDATE	LABEL	2/18/2019	DC Calibration Date
ACCALDATE	LABEL	2/18/2019	AC Calibration Date
THERMOSELECT	IQUANT	1	Thermo Select
FRAMEWORKVERSION	QUANT	6.33	Framework Version
INSTRUMENTVERSION	LABEL	3.50	Instrument Version
CURVE1	TABLE
	Pt	T	Vf	Im	Vu	Sig	Ach	IERange	Over
	#	s	V vs. Ref.	A	V	V	V	#	bits
	0	0.1	1.21131E-001	-2.39347E-007	0.00000E+000	1.21150E-001	8.17113E-005	9	...........
	1	0.2	1.31244E-001	1.55347E-005	0.00000E+000	1.31150E-001	7.61604E-005	9	...........
	2	0.3	1.41090E-001	1.64200E-005	0.00000E+000	1.41150E-001	8.02944E-005	9	...........
	3	0.4	1.51068E-001	1.69492E-005	0.00000E+000	1.51150E-001	7.83441E-005	9	...........
	4	0.5	1.61100E-001	1.73385E-005	0.00000E+000	1.61150E-001	8.72121E-005	9	...........
	5	0.6	1.71217E-001	1.77659E-005	0.00000E+000	1.71150E-001	7.94276E-005	9	...........
	6	0.7	1.81095E-001	1.82145E-005	0.00000E+000	1.81150E-001	8.34782E-005	9	...........
	7	0.8	1.91063E-001	1.86965E-005	0.00000E+000	1.91150E-001	8.22947E-005	9	...........
	8	0.9	2.01081E-001	1.92907E-005	0.00000E+000	2.01150E-001	8.57786E-005	9	...........
	9	1	2.11127E-001	1.99521E-005	0.00000E+000	2.11150E-001	8.00944E-005	9	...........
	10	1.1	2.21062E-001	2.06892E-005	0.00000E+000	2.21150E-001	8.27781E-005	9	...........
	11	1.2	2.31019E-001	2.15367E-005	0.00000E+000	2.31150E-001	8.00777E-005	9	...........
	12	1.3	2.41008E-001	2.24753E-005	0.00000E+000	2.41150E-001	8.39950E-005	9	...........
	13	1.4	2.51218E-001	2.35616E-005	0.00000E+000	2.51150E-001	7.96610E-005	9	...........
	14	1.5	2.61038E-001	2.47730E-005	0.00000E+000	2.61150E-001	8.57619E-005	9	...........
	15	1.6	2.71019E-001	2.61527E-005	0.00000E+000	2.71150E-001	7.71273E-005	9	...........
	16	1.7	2.81031E-001	2.76927E-005	0.00000E+000	2.81150E-001	8.33949E-005	9	...........
	17	1.8	2.91044E-001	2.94411E-005	0.00000E+000	2.91150E-001	8.05778E-005	9	...........
	18	1.9	3.01001E-001	3.14718E-005	0.00000E+000	3.01150E-001	8.21447E-005	9	...........
	19	2	3.10972E-001	3.37344E-005	0.00000E+000	3.11150E-001	7.71439E-005	9	...........
	20	2.1	3.20887E-001	3.62928E-005	0.00000E+000	3.21150E-001	8.38783E-005	9	...........
	21	2.2	3.31058E-001	3.93328E-005	0.00000E+000	3.31150E-001	7.49436E-005	9	...........
	22	2.3	3.40956E-001	4.26584E-005	0.00000E+000	3.41150E-001	8.41617E-005	9	...........
	23	2.4	3.50939E-001	4.65300E-005	0.00000E+000	3.51150E-001	7.62271E-005	9	...........
	24	2.5	3.60920E-001	5.09327E-005	0.00000E+000	3.61150E-001	8.12779E-005	9	...........
	25	2.6	3.70919E-001	5.59200E-005	0.00000E+000	3.71150E-001	7.66605E-005	9	...........
	26	2.7	3.80939E-001	6.16156E-005	0.00000E+000	3.81150E-001	8.14112E-005	9	...........
	27	2.8	3.90919E-001	6.80980E-005	0.00000E+000	3.91150E-001	7.84108E-005	9	...........
	28	2.9	4.00804E-001	7.54120E-005	0.00000E+000	4.01150E-001	8.11612E-005	9	...........
	29	3	4.10914E-001	8.37688E-005	0.00000E+000	4.11150E-001	7.49603E-005	9	...........
	30	3.1	4.20876E-001	9.32190E-005	0.00000E+000	4.21150E-001	7.71106E-005	9	...........
	31	3.2	4.30875E-001	1.04060E-004	0.00000E+000	4.31150E-001	7.36267E-005	9	...........
	32	3.3	4.40807E-001	1.16421E-004	0.00000E+000	4.41150E-001	7.72606E-005	9	...........
	33	3.4	4.50915E-001	1.30348E-004	0.00000E+000	4.51150E-001	7.84775E-005	9	...........
	34	3.5	4.60874E-001	1.46347E-004	0.00000E+000	4.61150E-001	8.01444E-005	9	...........
	35	3.6	4.70852E-001	1.64361E-004	0.00000E+000	4.71150E-001	7.52770E-005	9	...........
	36	3.7	4.80744E-001	1.84575E-004	0.00000E+000	4.81150E-001	7.88775E-005	9	...........
	37	3.8	4.90795E-001	2.07121E-004	0.00000E+000	4.91150E-001	7.56437E-005	9	...........
	38	3.9	5.00868E-001	2.31957E-004	0.00000E+000	5.01150E-001	7.82608E-005	9	...........
	39	4	5.10840E-001	2.58845E-004	0.00000E+000	5.11150E-001	7.77774E-005	9	...........
	40	4.1	5.20744E-001	2.87319E-004	0.00000E+000	5.21150E-001	8.03944E-005	9	...........
	41	4.2	5.30788E-001	3.17150E-004	0.00000E+000	5.31150E-001	8.13446E-005	9	...........
	42	4.3	5.40862E-001	3.47601E-004	0.00000E+000	5.41150E-001	7.86942E-005	9	...........
	43	4.4	5.50715E-001	3.77952E-004	0.00000E+000	5.51150E-001	7.77774E-005	9	...........
	44	4.5	5.60685E-001	4.07694E-004	0.00000E+000	5.61150E-001	7.73106E-005	9	...........
	45	4.6	5.70745E-001	4.36026E-004	0.00000E+000	5.71150E-001	7.86108E-005	9	...........
	46	4.7	5.80827E-001	4.62804E-004	0.00000E+000	5.81150E-001	7.41601E-005	9	...........
	47	4.8	5.90742E-001	4.87664E-004	0.00000E+000	5.91150E-001	7.49436E-005	9	...........
	48	4.9	6.00683E-001	5.10406E-004	0.00000E+000	6.01150E-001	7.31433E-005	9	...........
	49	5	6.10711E-001	5.31168E-004	0.00000E+000	6.11150E-001	8.03111E-005	9	...........
	50	5.1	6.20797E-001	5.49855E-004	0.00000E+000	6.21150E-001	7.87109E-005	9	...........
	51	5.2	6.30718E-001	5.66749E-004	0.00000E+000	6.31150E-001	7.80107E-005	9	...........
	52	5.3	6.40649E-001	5.82026E-004	0.00000E+000	6.41150E-001	7.82108E-005	9	...........
	53	5.4	6.50612E-001	5.95712E-004	0.00000E+000	6.51150E-001	8.55952E-005	9	...........
	54	5.5	6.60843E-001	6.08123E-004	0.00000E+000	6.61150E-001	7.55437E-005	9	...........
	55	5.6	6.70667E-001	6.19567E-004	0.00000E+000	6.71150E-001	8.19613E-005	9	...........
	56	5.7	6.80646E-001	6.30009E-004	0.00000E+000	6.81150E-001	7.78607E-005	9	...........
	57	5.8	6.90649E-001	6.39664E-004	0.00000E+000	6.91150E-001	8.12779E-005	9	...........
	58	5.9	7.00663E-001	6.48644E-004	0.00000E+000	7.01150E-001	7.69939E-005	9	...........
	59	6	6.90702E-001	3.69750E-004	0.00000E+000	6.91150E-001	8.26781E-005	9	...........
	60	6.1	6.80700E-001	2.45188E-004	0.00000E+000	6.81150E-001	7.98443E-005	9	...........
	61	6.2	6.70725E-001	1.67891E-004	0.00000E+000	6.71150E-001	8.28448E-005	9	...........
	62	6.3	6.60896E-001	1.16396E-004	0.00000E+000	6.61150E-001	7.95110E-005	9	...........
	63	6.4	6.50683E-001	8.03699E-005	0.00000E+000	6.51150E-001	8.73455E-005	9	...........
	64	6.5	6.40701E-001	5.42982E-005	0.00000E+000	6.41150E-001	8.01277E-005	9	...........
	65	6.6	6.30790E-001	3.46627E-005	0.00000E+000	6.31150E-001	8.11112E-005	9	...........
	66	6.7	6.20847E-001	1.96490E-005	0.00000E+000	6.21150E-001	7.96110E-005	9	...........
	67	6.8	6.10774E-001	7.84990E-006	0.00000E+000	6.11150E-001	7.75773E-005	9	...........
	68	6.9	6.00753E-001	-1.72788E-006	0.00000E+000	6.01150E-001	7.55937E-005	9	...........
	69	7	5.90817E-001	-9.65350E-006	0.00000E+000	5.91150E-001	7.74106E-005	9	...........
	70	7.1	5.80889E-001	-1.63324E-005	0.00000E+000	5.81150E-001	7.62271E-005	9	...........
	71	7.2	5.70811E-001	-2.21425E-005	0.00000E+000	5.71150E-001	7.83608E-005	9	...........
	72	7.3	5.60738E-001	-2.72387E-005	0.00000E+000	5.61150E-001	8.08278E-005	9	...........
	73	7.4	5.50770E-001	-3.19886E-005	0.00000E+000	5.51150E-001	7.86608E-005	9	...........
	74	7.5	5.40902E-001	-3.62256E-005	0.00000E+000	5.41150E-001	7.96943E-005	9	...........
	75	7.6	5.30832E-001	-4.02933E-005	0.00000E+000	5.31150E-001	7.47602E-005	9	...........
	76	7.7	5.20784E-001	-4.41507E-005	0.00000E+000	5.21150E-001	7.72606E-005	9	...........
	77	7.8	5.10879E-001	-4.78167E-005	0.00000E+000	5.11150E-001	7.18931E-005	9	...........
	78	7.9	5.00893E-001	-5.14524E-005	0.00000E+000	5.01150E-001	7.61438E-005	9	...........
	79	8	4.90827E-001	-5.49600E-005	0.00000E+000	4.91150E-001	7.62605E-005	9	...........
	80	8.1	4.80789E-001	-5.84060E-005	0.00000E+000	4.81150E-001	8.08945E-005	9	...........
	81	8.2	4.70875E-001	-6.18710E-005	0.00000E+000	4.71150E-001	7.82274E-005	9	...........
	82	8.3	4.60912E-001	-6.53196E-005	0.00000E+000	4.61150E-001	8.26281E-005	9	...........
	83	8.4	4.50904E-001	-6.88137E-005	0.00000E+000	4.51150E-001	7.67272E-005	9	...........
	84	8.5	4.40830E-001	-7.21761E-005	0.00000E+000	4.41150E-001	7.90776E-005	9	...........
	85	8.6	4.30917E-001	-7.56614E-005	0.00000E+000	4.31150E-001	7.27599E-005	9	...........
	86	8.7	4.20872E-001	-7.91594E-005	0.00000E+000	4.21150E-001	8.10112E-005	9	...........
	87	8.8	4.10898E-001	-8.26386E-005	0.00000E+000	4.11150E-001	7.73273E-005	9	...........
	88	8.9	4.00847E-001	-8.62025E-005	0.00000E+000	4.01150E-001	8.32449E-005	9	...........
	89	9	3.90920E-001	-8.98052E-005	0.00000E+000	3.91150E-001	7.61604E-005	9	...........
	90	9.1	3.80973E-001	-9.35078E-005	0.00000E+000	3.81150E-001	8.24447E-005	9	...........
	91	9.2	3.70933E-001	-9.72760E-005	0.00000E+000	3.71150E-001	7.83608E-005	9	...........
	92	9.3	3.60928E-001	-1.01119E-004	0.00000E+000	3.61150E-001	8.36116E-005	9	...........
	93	9.4	3.50962E-001	-1.04959E-004	0.00000E+000	3.51150E-001	7.63271E-005	9	...........
	94	9.5	3.40982E-001	-1.08941E-004	0.00000E+000	3.41150E-001	8.28115E-005	9	...........
	95	9.6	3.31069E-001	-1.12929E-004	0.00000E+000	3.31150E-001	7.57937E-005	9	...........
	96	9.7	3.20939E-001	-1.17152E-004	0.00000E+000	3.21150E-001	8.24781E-005	9	...........
	97	9.8	3.11025E-001	-1.21274E-004	0.00000E+000	3.11150E-001	7.67939E-005	9	...........
	98	9.9	3.01054E-001	-1.25601E-004	0.00000E+000	3.01150E-001	8.33115E-005	9	...........
	99	10	2.91052E-001	-1.29993E-004	0.00000E+000	2.91150E-001	7.91276E-005	9	...........
	100	10.1	2.81049E-001	-1.34423E-004	0.00000E+000	2.81150E-001	8.18280E-005	9	...........
	101	10.2	2.71056E-001	-1.39041E-004	0.00000E+000	2.71150E-001	7.80274E-005	9	...........
	102	10.3	2.61071E-001	-1.43599E-004	0.00000E+000	2.61150E-001	8.50451E-005	9	...........
	103	10.4	2.51240E-001	-1.48313E-004	0.00000E+000	2.51150E-001	8.15946E-005	9	...........
	104	10.5	2.41024E-001	-1.53039E-004	0.00000E+000	2.41150E-001	8.71455E-005	9	...........
	105	10.6	2.31074E-001	-1.57833E-004	0.00000E+000	2.31150E-001	8.23280E-005	9	...........
	106	10.7	2.21118E-001	-1.62832E-004	0.00000E+000	2.21150E-001	8.36949E-005	9	...........
	107	10.8	2.11156E-001	-1.67728E-004	0.00000E+000	2.11150E-001	7.78941E-005	9	...........
	108	10.9	2.01101E-001	-1.72725E-004	0.00000E+000	2.01150E-001	8.44784E-005	9	...........
	109	11	1.91085E-001	-1.77704E-004	0.00000E+000	1.91150E-001	8.06278E-005	9	...........
	110	11.1	1.81142E-001	-1.82662E-004	0.00000E+000	1.81150E-001	8.25114E-005	9	...........
	111	11.2	1.71236E-001	-1.87746E-004	0.00000E+000	1.71150E-001	7.64605E-005	9	...........
	112	11.3	1.61127E-001	-1.92634E-004	0.00000E+000	1.61150E-001	8.49785E-005	9	...........
	113	11.4	1.51118E-001	-1.97548E-004	0.00000E+000	1.51150E-001	8.05111E-005	9	...........
	114	11.5	1.41107E-001	-2.02360E-004	0.00000E+000	1.41150E-001	8.70788E-005	9	...........
	115	11.6	1.31288E-001	-2.07000E-004	0.00000E+000	1.31150E-001	8.36282E-005	9	...........
	116	11.7	1.21162E-001	-2.11360E-004	0.00000E+000	1.21150E-001	8.45784E-005	9	...........
	117	11.8	1.11136E-001	-2.15497E-004	0.00000E+000	1.11150E-001	8.69621E-005	9	...........
	118	11.9	1.01231E-001	-2.19222E-004	0.00000E+000	1.01150E-001	8.07945E-005	9	...........
	119	12	9.13010E-002	-2.22638E-004	0.00000E+000	9.11500E-002	7.90276E-005	9	...........
	120	12.1	8.11766E-002	-2.25604E-004	0.00000E+000	8.11500E-002	7.96943E-005	9	...........
	121	12.2	7.11425E-002	-2.28217E-004	0.00000E+000	7.11500E-002	7.91442E-005	9	...........
	122	12.3	6.12293E-002	-2.30329E-004	0.00000E+000	6.11500E-002	7.75607E-005	9	...........
	123	12.4	5.13165E-002	-2.32060E-004	0.00000E+000	5.11500E-002	8.07612E-005	9	...........
	124	12.5	4.12000E-002	-2.33651E-004	0.00000E+000	4.11500E-002	8.28781E-005	9	...........
	125	12.6	3.11771E-002	-2.34882E-004	0.00000E+000	3.11500E-002	8.12946E-005	9	...........
	126	12.7	2.12828E-002	-2.36050E-004	0.00000E+000	2.11500E-002	7.88609E-005	9	...........
	127	12.8	1.12281E-002	-2.37143E-004	0.00000E+000	1.11500E-002	8.26448E-005	9	...........
	128	12.9	1.21933E-003	-2.38267E-004	0.00000E+000	1.15000E-003	7.79774E-005	9	...........
	129	13	-8.75200E-003	-2.39660E-004	0.00000E+000	-8.85000E-003	8.25114E-005	9	...........
	130	13.1	-1.86956E-002	-2.41346E-004	0.00000E+000	-1.88500E-002	8.17113E-005	9	...........
	131	13.2	-2.86425E-002	-2.43571E-004	0.00000E+000	-2.88500E-002	8.52952E-005	9	...........
	132	13.3	-3.86918E-002	-2.46286E-004	0.00000E+000	-3.88500E-002	7.58437E-005	9	...........
	133	13.4	-4.86945E-002	-2.49795E-004	0.00000E+000	-4.88500E-002	8.42450E-005	9	...........
	134	13.5	-5.86713E-002	-2.54069E-004	0.00000E+000	-5.88500E-002	7.86942E-005	9	...........
	135	13.6	-6.86654E-002	-2.59363E-004	0.00000E+000	-6.88500E-002	8.45451E-005	9	...........
	136	13.7	-7.86383E-002	-2.65655E-004	0.00000E+000	-7.88500E-002	8.31282E-005	9	...........
	137	13.8	-8.86932E-002	-2.73223E-004	0.00000E+000	-8.88500E-002	8.86290E-005	9	...........
	138	13.9	-9.86297E-002	-2.82055E-004	0.00000E+000	-9.88500E-002	8.13446E-005	9	...........
	139	14	-1.08592E-001	-2.92383E-004	0.00000E+000	-1.08850E-001	8.60620E-005	9	...........
	140	14.1	-1.18615E-001	-3.04351E-004	0.00000E+000	-1.18850E-001	7.96443E-005	9	...........
	141	14.2	-1.28586E-001	-3.18039E-004	0.00000E+000	-1.28850E-001	8.82289E-005	9	...........
	142	14.3	-1.38572E-001	-3.33735E-004	0.00000E+000	-1.38850E-001	8.25614E-005	9	...........
	143	14.4	-1.48561E-001	-3.51472E-004	0.00000E+000	-1.48850E-001	8.91458E-005	9	...........
	144	14.5	-1.58440E-001	-3.71462E-004	0.00000E+000	-1.58850E-001	8.52785E-005	9	...........
	145	14.6	-1.68599E-001	-3.93638E-004	0.00000E+000	-1.68850E-001	9.10127E-005	9	...........
	146	14.7	-1.78556E-001	-4.17969E-004	0.00000E+000	-1.78850E-001	8.39283E-005	9	...........
	147	14.8	-1.88520E-001	-4.44396E-004	0.00000E+000	-1.88850E-001	8.83623E-005	9	...........
	148	14.9	-1.98532E-001	-4.72091E-004	0.00000E+000	-1.98850E-001	8.38950E-005	9	...........
	149	15	-2.08540E-001	-5.00855E-004	0.00000E+000	-2.08850E-001	8.81456E-005	9	...........
	150	15.1	-2.18542E-001	-5.29332E-004	0.00000E+000	-2.18850E-001	8.18613E-005	9	...........
	151	15.2	-2.28475E-001	-5.56803E-004	0.00000E+000	-2.28850E-001	8.86123E-005	9	...........
	152	15.3	-2.38418E-001	-5.82241E-004	0.00000E+000	-2.38850E-001	7.97277E-005	9	...........
	153	15.4	-2.48499E-001	-6.04532E-004	0.00000E+000	-2.48850E-001	9.04459E-005	9	...........
	154	15.5	-2.58485E-001	-6.22653E-004	0.00000E+000	-2.58850E-001	8.10612E-005	9	...........
	155	15.6	-2.68495E-001	-6.35923E-004	0.00000E+000	-2.68850E-001	8.51285E-005	9	...........
	156	15.7	-2.78350E-001	-6.44036E-004	0.00000E+000	-2.78850E-001	8.35449E-005	9	...........
	157	15.8	-2.88474E-001	-6.46844E-004	0.00000E+000	-2.88850E-001	8.63953E-005	9	...........
	158	15.9	-2.98479E-001	-6.44503E-004	0.00000E+000	-2.98850E-001	8.25281E-005	9	...........
	159	16	-3.08402E-001	-6.37993E-004	0.00000E+000	-3.08850E-001	8.15446E-005	9	...........
	160	16.1	-3.18339E-001	-6.27954E-004	0.00000E+000	-3.18850E-001	8.09945E-005	9	...........
	161	16.2	-3.28454E-001	-6.15456E-004	0.00000E+000	-3.28850E-001	8.48784E-005	9	...........
	162	16.3	-3.38462E-001	-6.01697E-004	0.00000E+000	-3.38850E-001	8.43450E-005	9	...........
	163	16.4	-3.48421E-001	-5.87652E-004	0.00000E+000	-3.48850E-001	8.21113E-005	9	...........
	164	16.5	-3.58294E-001	-5.74242E-004	0.00000E+000	-3.58850E-001	8.15279E-005	9	...........
	165	16.6	-3.68443E-001	-5.62362E-004	0.00000E+000	-3.68850E-001	8.23781E-005	9	...........
	166	16.7	-3.78434E-001	-5.52463E-004	0.00000E+000	-3.78850E-001	8.16613E-005	9	...........
	167	16.8	-3.88346E-001	-5.45289E-004	0.00000E+000	-3.88850E-001	7.53603E-005	9	...........
	168	16.9	-3.98396E-001	-5.41062E-004	0.00000E+000	-3.98850E-001	7.73106E-005	9	...........
	169	17	-4.08408E-001	-5.40004E-004	0.00000E+000	-4.08850E-001	7.76273E-005	9	...........
	170	17.1	-4.18425E-001	-5.42587E-004	0.00000E+000	-4.18850E-001	8.25447E-005	9	...........
	171	17.2	-4.28349E-001	-5.48605E-004	0.00000E+000	-4.28850E-001	7.82941E-005	9	...........
	172	17.3	-4.38276E-001	-5.58502E-004	0.00000E+000	-4.38850E-001	8.01611E-005	9	...........
	173	17.4	-4.48352E-001	-5.72160E-004	0.00000E+000	-4.48850E-001	7.57437E-005	9	...........
	174	17.5	-4.58355E-001	-5.89981E-004	0.00000E+000	-4.58850E-001	7.65938E-005	9	...........
	175	17.6	-4.68310E-001	-6.12168E-004	0.00000E+000	-4.68850E-001	7.46936E-005	9	...........
	176	17.7	-4.78294E-001	-6.39407E-004	0.00000E+000	-4.78850E-001	7.91609E-005	9	...........
	177	17.8	-4.88294E-001	-6.72325E-004	0.00000E+000	-4.88850E-001	7.15097E-005	9	...........
	178	17.9	-4.98364E-001	-7.11647E-004	0.00000E+000	-4.98850E-001	7.68105E-005	9	...........
	179	18	-5.08274E-001	-7.57332E-004	0.00000E+000	-5.08850E-001	7.35267E-005	9	...........
	180	18.1	-5.18235E-001	-8.10492E-004	0.00000E+000	-5.18850E-001	7.79274E-005	9	...........
	181	18.2	-5.28271E-001	-8.71600E-004	0.00000E+000	-5.28850E-001	7.51603E-005	9	...........
	182	18.3	-5.38240E-001	-9.39446E-004	0.00000E+000	-5.38850E-001	7.80274E-005	9	...........
	183	18.4	-5.48220E-001	-1.01390E-003	0.00000E+000	-5.48850E-001	7.37768E-005	9	...........
	184	18.5	-5.58211E-001	-1.09319E-003	0.00000E+000	-5.58850E-001	8.02777E-005	9	...........
	185	18.6	-5.68127E-001	-1.17663E-003	0.00000E+000	-5.68850E-001	7.64605E-005	9	...........
	186	18.7	-5.78239E-001	-1.26239E-003	0.00000E+000	-5.78850E-001	8.22614E-005	9	...........
	187	18.8	-5.88189E-001	-1.34993E-003	0.00000E+000	-5.88850E-001	7.81107E-005	9	...........
	188	18.9	-5.98150E-001	-1.44006E-003	0.00000E+000	-5.98850E-001	8.09112E-005	9	...........
	189	19	-6.08156E-001	-1.53186E-003	0.00000E+000	-6.08850E-001	7.96610E-005	9	...........
	190	19.1	-6.18133E-001	-1.62656E-003	0.00000E+000	-6.18850E-001	8.25614E-005	9	...........
	191	19.2	-6.28153E-001	-1.72325E-003	0.00000E+000	-6.28850E-001	7.86275E-005	9	...........
	192	19.3	-6.38091E-001	-1.82006E-003	0.00000E+000	-6.38850E-001	8.43950E-005	9	...........
	193	19.4	-6.48022E-001	-1.91466E-003	0.00000E+000	-6.48850E-001	7.80941E-005	9	...........
	194	19.5	-6.58108E-001	-2.00878E-003	0.00000E+000	-6.58850E-001	8.27948E-005	9	...........
	195	19.6	-6.68084E-001	-2.11216E-003	0.00000E+000	-6.68850E-001	7.81774E-005	9	...........
	196	19.7	-6.78085E-001	-2.24446E-003	0.00000E+000	-6.78850E-001	8.36783E-005	9	...........
CURVE2	TABLE
	Pt	T	Vf	Im	Vu	Sig	Ach	IERange	Over
	#	s	V vs. Ref.	A	V	V	V	#	bits
	197	19.8	-6.69355E-001	-9.15395E-004	0.00000E+000	-6.70000E-001	8.50785E-005	9	...........
	198	19.9	-6.59328E-001	-3.14238E-004	0.00000E+000	-6.60000E-001	7.75107E-005	9	...........
	199	20	-6.49364E-001	4.16098E-006	0.00000E+000	-6.50000E-001	8.40116E-005	9	...........
	200	20.1	-6.39421E-001	1.90977E-004	0.00000E+000	-6.40000E-001	7.87775E-005	9	...........
	201	20.2	-6.29476E-001	3.07707E-004	0.00000E+000	-6.30000E-001	8.45617E-005	9	...........
	202	20.3	-6.19309E-001	3.85543E-004	0.00000E+000	-6.20000E-001	8.10779E-005	9	...........
	203	20.4	-6.09457E-001	4.39934E-004	0.00000E+000	-6.10000E-001	8.54785E-005	9	...........
	204	20.5	-5.99463E-001	4.79541E-004	0.00000E+000	-6.00000E-001	7.81441E-005	9	...........
	205	20.6	-5.89487E-001	5.09402E-004	0.00000E+000	-5.90000E-001	8.38116E-005	9	...........
	206	20.7	-5.79508E-001	5.29673E-004	0.00000E+000	-5.80000E-001	7.62938E-005	9	...........
	207	20.8	-5.69472E-001	5.39074E-004	0.00000E+000	-5.70000E-001	8.55452E-005	9	...........
	208	20.9	-5.59480E-001	5.33752E-004	0.00000E+000	-5.60000E-001	7.66605E-005	9	...........
	209	21	-5.49555E-001	5.17082E-004	0.00000E+000	-5.50000E-001	8.10279E-005	9	...........
	210	21.1	-5.39492E-001	4.97055E-004	0.00000E+000	-5.40000E-001	7.55103E-005	9	...........
	211	21.2	-5.29504E-001	4.79548E-004	0.00000E+000	-5.30000E-001	8.32782E-005	9	...........
	212	21.3	-5.19506E-001	4.67576E-004	0.00000E+000	-5.20000E-001	7.34267E-005	9	...........
	213	21.4	-5.09576E-001	4.60265E-004	0.00000E+000	-5.10000E-001	7.97777E-005	9	...........
	214	21.5	-4.99588E-001	4.54475E-004	0.00000E+000	-5.00000E-001	7.23932E-005	9	...........
	215	21.6	-4.89509E-001	4.47291E-004	0.00000E+000	-4.90000E-001	7.75440E-005	9	...........
	216	21.7	-4.79559E-001	4.38686E-004	0.00000E+000	-4.80000E-001	7.16098E-005	9	...........
	217	21.8	-4.69660E-001	4.29778E-004	0.00000E+000	-4.70000E-001	7.27599E-005	9	...........
	218	21.9	-4.59561E-001	4.21043E-004	0.00000E+000	-4.60000E-001	7.11264E-005	9	...........
	219	22	-4.49577E-001	4.09160E-004	0.00000E+000	-4.50000E-001	7.79607E-005	9	...........
	220	22.1	-4.39540E-001	3.89989E-004	0.00000E+000	-4.40000E-001	6.97928E-005	9	...........
	221	22.2	-4.29618E-001	3.60333E-004	0.00000E+000	-4.30000E-001	7.29600E-005	9	...........
	222	22.3	-4.19605E-001	3.22164E-004	0.00000E+000	-4.20000E-001	7.19431E-005	9	...........
	223	22.4	-4.09523E-001	2.82532E-004	0.00000E+000	-4.10000E-001	7.93776E-005	9	...........
	224	22.5	-3.99625E-001	2.45335E-004	0.00000E+000	-4.00000E-001	7.59938E-005	9	...........
	225	22.6	-3.89687E-001	2.12849E-004	0.00000E+000	-3.90000E-001	7.75940E-005	9	...........
	226	22.7	-3.79658E-001	1.86526E-004	0.00000E+000	-3.80000E-001	7.74106E-005	9	...........
	227	22.8	-3.69531E-001	1.65343E-004	0.00000E+000	-3.70000E-001	7.53937E-005	9	...........
	228	22.9	-3.59601E-001	1.48360E-004	0.00000E+000	-3.60000E-001	7.80107E-005	9	...........
	229	23	-3.49674E-001	1.34632E-004	0.00000E+000	-3.50000E-001	7.62105E-005	9	...........
	230	23.1	-3.39634E-001	1.23703E-004	0.00000E+000	-3.40000E-001	7.84275E-005	9	...........
	231	23.2	-3.29537E-001	1.15324E-004	0.00000E+000	-3.30000E-001	7.74940E-005	9	...........
	232	23.3	-3.19667E-001	1.09647E-004	0.00000E+000	-3.20000E-001	7.96443E-005	9	...........
	233	23.4	-3.09705E-001	1.06472E-004	0.00000E+000	-3.10000E-001	7.85275E-005	9	...........
	234	23.5	-2.99689E-001	1.05467E-004	0.00000E+000	-3.00000E-001	8.22947E-005	9	...........
	235	23.6	-2.89547E-001	1.06509E-004	0.00000E+000	-2.90000E-001	8.01611E-005	9	...........
	236	23.7	-2.79681E-001	1.09208E-004	0.00000E+000	-2.80000E-001	8.24781E-005	9	...........
	237	23.8	-2.69746E-001	1.13250E-004	0.00000E+000	-2.70000E-001	7.60604E-005	9	...........
	238	23.9	-2.59714E-001	1.18504E-004	0.00000E+000	-2.60000E-001	8.51785E-005	9	...........
	239	24	-2.49626E-001	1.24689E-004	0.00000E+000	-2.50000E-001	8.19280E-005	9	...........
	240	24.1	-2.39685E-001	1.31567E-004	0.00000E+000	-2.40000E-001	8.39783E-005	9	...........
	241	24.2	-2.29735E-001	1.38943E-004	0.00000E+000	-2.30000E-001	8.01277E-005	9	...........
	242	24.3	-2.19782E-001	1.46678E-004	0.00000E+000	-2.20000E-001	8.39616E-005	9	...........
	243	24.4	-2.09550E-001	1.54409E-004	0.00000E+000	-2.10000E-001	7.94443E-005	9	...........
	244	24.5	-1.99757E-001	1.62014E-004	0.00000E+000	-2.00000E-001	8.31448E-005	9	...........
	245	24.6	-1.89762E-001	1.69260E-004	0.00000E+000	-1.90000E-001	7.64272E-005	9	...........
	246	24.7	-1.79775E-001	1.75916E-004	0.00000E+000	-1.80000E-001	8.13446E-005	9	...........
	247	24.8	-1.69794E-001	1.81652E-004	0.00000E+000	-1.70000E-001	7.60604E-005	9	...........
	248	24.9	-1.59762E-001	1.86501E-004	0.00000E+000	-1.60000E-001	7.83441E-005	9	...........
	249	25	-1.49775E-001	1.90249E-004	0.00000E+000	-1.50000E-001	7.27933E-005	9	...........
	250	25.1	-1.39827E-001	1.92881E-004	0.00000E+000	-1.40000E-001	7.91942E-005	9	...........
	251	25.2	-1.29726E-001	1.94400E-004	0.00000E+000	-1.30000E-001	7.16764E-005	9	...........
	252	25.3	-1.19806E-001	1.94845E-004	0.00000E+000	-1.20000E-001	7.82608E-005	9	...........
	253	25.4	-1.09801E-001	1.94160E-004	0.00000E+000	-1.10000E-001	7.29100E-005	9	...........
	254	25.5	-9.98649E-002	1.92582E-004	0.00000E+000	-1.00000E-001	7.82608E-005	9	...........
	255	25.6	-8.98869E-002	1.90071E-004	0.00000E+000	-9.00000E-002	7.53770E-005	9	...........
	256	25.7	-7.98322E-002	1.87035E-004	0.00000E+000	-8.00000E-002	7.96276E-005	9	...........
	257	25.8	-6.98813E-002	1.83336E-004	0.00000E+000	-7.00000E-002	7.30100E-005	9	...........
	258	25.9	-5.99182E-002	1.79231E-004	0.00000E+000	-6.00000E-002	7.84441E-005	9	...........
	259	26	-4.98425E-002	1.74885E-004	0.00000E+000	-5.00000E-002	7.33767E-005	9	...........
	260	26.1	-3.99057E-002	1.70460E-004	0.00000E+000	-4.00000E-002	7.84608E-005	9	...........
	261	26.2	-2.98668E-002	1.66099E-004	0.00000E+000	-3.00000E-002	7.03096E-005	9	...........
	262	26.3	-1.99266E-002	1.61970E-004	0.00000E+000	-2.00000E-002	7.70273E-005	9	...........
	263	26.4	-9.81974E-003	1.58146E-004	0.00000E+000	-1.00000E-002	7.10430E-005	9	...........
	264	26.5	7.81066E-005	1.54805E-004	0.00000E+000	9.31323E-010	7.50270E-005	9	...........
	265	26.6	1.00258E-002	1.51962E-004	0.00000E+000	1.00000E-002	7.53603E-005	9	...........
	266	26.7	1.99197E-002	1.49891E-004	0.00000E+000	2.00000E-002	7.65272E-005	9	...........
	267	26.8	3.00126E-002	1.48392E-004	0.00000E+000	3.00000E-002	7.38768E-005	9	...........
	268	26.9	4.00752E-002	1.47603E-004	0.00000E+000	4.00000E-002	7.54937E-005	9	...........
	269	27	5.00409E-002	1.47554E-004	0.00000E+000	5.00000E-002	7.30600E-005	9	...........
	270	27.1	5.99779E-002	1.48161E-004	0.00000E+000	6.00000E-002	7.72940E-005	9	...........
	271	27.2	7.00317E-002	1.49530E-004	0.00000E+000	7.00000E-002	7.87942E-005	9	...........
	272	27.3	8.00697E-002	1.51617E-004	0.00000E+000	8.00000E-002	7.88275E-005	9	...........
	273	27.4	8.99663E-002	1.54291E-004	0.00000E+000	9.00000E-002	7.70606E-005	9	...........
	274	27.5	9.99000E-002	1.57805E-004	0.00000E+000	1.00000E-001	7.84941E-005	9	...........
	275	27.6	1.09964E-001	1.61812E-004	0.00000E+000	1.10000E-001	8.03278E-005	9	...........
	276	27.7	1.20064E-001	1.66570E-004	0.00000E+000	1.20000E-001	7.65438E-005	9	...........
	277	27.8	1.29956E-001	1.72006E-004	0.00000E+000	1.30000E-001	7.68439E-005	9	...........
	278	27.9	1.39890E-001	1.78277E-004	0.00000E+000	1.40000E-001	7.67439E-005	9	...........
	279	28	1.49923E-001	1.85510E-004	0.00000E+000	1.50000E-001	8.02277E-005	9	...........
	280	28.1	1.60036E-001	1.93933E-004	0.00000E+000	1.60000E-001	7.86775E-005	9	...........
	281	28.2	1.69949E-001	2.03587E-004	0.00000E+000	1.70000E-001	8.26781E-005	9	...........
	282	28.3	1.79870E-001	2.14584E-004	0.00000E+000	1.80000E-001	7.87275E-005	9	...........
	283	28.4	1.89858E-001	2.26704E-004	0.00000E+000	1.90000E-001	8.21947E-005	9	...........
	284	28.5	2.00064E-001	2.40078E-004	0.00000E+000	2.00000E-001	7.71273E-005	9	...........
	285	28.6	2.09877E-001	2.54506E-004	0.00000E+000	2.10000E-001	8.45617E-005	9	...........
	286	28.7	2.19852E-001	2.70117E-004	0.00000E+000	2.20000E-001	7.97443E-005	9	...........
	287	28.8	2.29880E-001	2.86668E-004	0.00000E+000	2.30000E-001	8.36616E-005	9	...........
	288	28.9	2.39914E-001	3.03821E-004	0.00000E+000	2.40000E-001	7.82941E-005	9	...........
	289	29	2.49864E-001	3.21526E-004	0.00000E+000	2.50000E-001	8.39450E-005	9	...........
	290	29.1	2.59844E-001	3.39656E-004	0.00000E+000	2.60000E-001	8.00444E-005	9	...........
	291	29.2	2.69812E-001	3.57747E-004	0.00000E+000	2.70000E-001	8.17946E-005	9	...........
	292	29.3	2.79989E-001	3.75693E-004	0.00000E+000	2.80000E-001	7.69106E-005	9	...........
	293	29.4	2.89835E-001	3.92947E-004	0.00000E+000	2.90000E-001	8.24114E-005	9	...........
	294	29.5	2.99822E-001	4.09993E-004	0.00000E+000	3.00000E-001	7.58437E-005	9	...........
	295	29.6	3.09775E-001	4.26311E-004	0.00000E+000	3.10000E-001	8.05278E-005	9	...........
	296	29.7	3.19768E-001	4.41930E-004	0.00000E+000	3.20000E-001	7.52103E-005	9	...........
	297	29.8	3.29798E-001	4.57098E-004	0.00000E+000	3.30000E-001	8.19280E-005	9	...........
	298	29.9	3.39769E-001	4.71703E-004	0.00000E+000	3.40000E-001	7.45435E-005	9	...........
	299	30	3.49695E-001	4.85680E-004	0.00000E+000	3.50000E-001	7.93776E-005	9	...........
	300	30.1	3.59881E-001	4.99294E-004	0.00000E+000	3.60000E-001	7.45769E-005	9	...........
	301	30.2	3.69751E-001	5.12371E-004	0.00000E+000	3.70000E-001	7.90942E-005	9	...........
	302	30.3	3.79761E-001	5.24943E-004	0.00000E+000	3.80000E-001	7.34934E-005	9	...........
	303	30.4	3.89713E-001	5.36857E-004	0.00000E+000	3.90000E-001	7.75940E-005	9	...........
	304	30.5	3.99906E-001	5.48028E-004	0.00000E+000	4.00000E-001	7.32100E-005	9	...........
	305	30.6	4.09699E-001	5.58992E-004	0.00000E+000	4.10000E-001	8.02777E-005	9	...........
	306	30.7	4.19679E-001	5.69306E-004	0.00000E+000	4.20000E-001	7.49436E-005	9	...........
	307	30.8	4.29592E-001	5.80288E-004	0.00000E+000	4.30000E-001	7.88442E-005	9	...........
	308	30.9	4.39666E-001	5.91783E-004	0.00000E+000	4.40000E-001	7.00262E-005	9	...........
	309	31	4.49683E-001	6.04316E-004	0.00000E+000	4.50000E-001	7.46602E-005	9	...........
	310	31.1	4.59672E-001	6.18675E-004	0.00000E+000	4.60000E-001	7.24099E-005	9	...........
	311	31.2	4.69613E-001	6.34689E-004	0.00000E+000	4.70000E-001	7.57604E-005	9	...........
	312	31.3	4.79709E-001	6.52470E-004	0.00000E+000	4.80000E-001	7.38434E-005	9	...........
	313	31.4	4.89673E-001	6.71223E-004	0.00000E+000	4.90000E-001	7.65938E-005	9	...........
	314	31.5	4.99585E-001	6.90390E-004	0.00000E+000	5.00000E-001	7.24766E-005	9	...........
	315	31.6	5.09543E-001	7.09491E-004	0.00000E+000	5.10000E-001	7.58937E-005	9	...........
	316	31.7	5.19603E-001	7.27451E-004	0.00000E+000	5.20000E-001	7.30267E-005	9	...........
	317	31.8	5.29659E-001	7.43684E-004	0.00000E+000	5.30000E-001	7.59104E-005	9	...........
	318	31.9	5.39599E-001	7.58262E-004	0.00000E+000	5.40000E-001	7.37434E-005	9	...........
	319	32	5.49529E-001	7.70566E-004	0.00000E+000	5.50000E-001	7.51270E-005	9	...........
	320	32.1	5.59572E-001	7.80610E-004	0.00000E+000	5.60000E-001	7.46269E-005	9	...........
	321	32.2	5.69651E-001	7.88449E-004	0.00000E+000	5.70000E-001	7.59771E-005	9	...........
	322	32.3	5.79597E-001	7.94403E-004	0.00000E+000	5.80000E-001	7.51936E-005	9	...........
	323	32.4	5.89481E-001	7.98554E-004	0.00000E+000	5.90000E-001	7.73773E-005	9	...........
	324	32.5	5.99501E-001	8.01155E-004	0.00000E+000	6.00000E-001	7.55103E-005	9	...........
	325	32.6	6.09661E-001	8.02569E-004	0.00000E+000	6.10000E-001	7.58604E-005	9	...........
	326	32.7	6.19515E-001	8.03132E-004	0.00000E+000	6.20000E-001	7.79774E-005	9	...........
	327	32.8	6.29463E-001	8.02804E-004	0.00000E+000	6.30000E-001	7.73606E-005	9	...........
	328	32.9	6.39519E-001	8.01923E-004	0.00000E+000	6.40000E-001	7.82774E-005	9	...........
	329	33	6.49567E-001	8.00067E-004	0.00000E+000	6.50000E-001	7.75773E-005	9	...........
	330	33.1	6.59514E-001	7.97946E-004	0.00000E+000	6.60000E-001	8.16446E-005	9	...........
	331	33.2	6.69465E-001	7.95300E-004	0.00000E+000	6.70000E-001	7.98777E-005	9	...........
	332	33.3	6.79439E-001	7.92359E-004	0.00000E+000	6.80000E-001	8.04778E-005	9	...........
	333	33.4	6.89617E-001	7.89077E-004	0.00000E+000	6.90000E-001	7.43769E-005	9	...........
	334	33.5	6.99470E-001	7.85808E-004	0.00000E+000	7.00000E-001	7.98777E-005	9	...........
	335	33.6	6.89688E-001	4.76234E-004	0.00000E+000	6.90000E-001	7.55103E-005	9	...........
	336	33.7	6.79489E-001	3.38058E-004	0.00000E+000	6.80000E-001	7.68606E-005	9	...........
	337	33.8	6.69519E-001	2.49916E-004	0.00000E+000	6.70000E-001	7.51936E-005	9	...........
	338	33.9	6.59600E-001	1.89349E-004	0.00000E+000	6.60000E-001	7.20098E-005	9	...........
	339	34	6.49655E-001	1.45702E-004	0.00000E+000	6.50000E-001	7.44935E-005	9	...........
	340	34.1	6.39594E-001	1.13091E-004	0.00000E+000	6.40000E-001	7.77107E-005	9	...........
	341	34.2	6.29516E-001	8.78121E-005	0.00000E+000	6.30000E-001	7.61604E-005	9	...........
	342	34.3	6.19606E-001	6.78029E-005	0.00000E+000	6.20000E-001	7.63438E-005	9	...........
	343	34.4	6.09710E-001	5.15444E-005	0.00000E+000	6.10000E-001	7.10930E-005	9	...........
	344	34.5	5.99602E-001	3.80093E-005	0.00000E+000	6.00000E-001	7.23099E-005	9	...........
	345	34.6	5.89546E-001	2.64924E-005	0.00000E+000	5.90000E-001	7.71939E-005	9	...........
	346	34.7	5.79677E-001	1.65108E-005	0.00000E+000	5.80000E-001	7.32100E-005	9	...........
	347	34.8	5.69710E-001	7.66320E-006	0.00000E+000	5.70000E-001	7.65772E-005	9	...........
	348	34.9	5.59667E-001	-2.45748E-007	0.00000E+000	5.60000E-001	7.66772E-005	9	...........
	349	35	5.49615E-001	-7.54834E-006	0.00000E+000	5.50000E-001	7.86608E-005	9	...........
	350	35.1	5.39682E-001	-1.43041E-005	0.00000E+000	5.40000E-001	7.64105E-005	9	...........
	351	35.2	5.29713E-001	-2.07300E-005	0.00000E+000	5.30000E-001	7.70273E-005	9	...........
	352	35.3	5.19694E-001	-2.68076E-005	0.00000E+000	5.20000E-001	7.06763E-005	9	...........
	353	35.4	5.09630E-001	-3.28249E-005	0.00000E+000	5.10000E-001	7.65605E-005	9	...........
	354	35.5	4.99669E-001	-3.86757E-005	0.00000E+000	5.00000E-001	7.02596E-005	9	...........
	355	35.6	4.89728E-001	-4.43984E-005	0.00000E+000	4.90000E-001	7.58437E-005	9	...........
	356	35.7	4.79800E-001	-5.01903E-005	0.00000E+000	4.80000E-001	6.99762E-005	9	...........
	357	35.8	4.69681E-001	-5.59762E-005	0.00000E+000	4.70000E-001	7.51936E-005	9	...........
	358	35.9	4.59731E-001	-6.18133E-005	0.00000E+000	4.60000E-001	7.34934E-005	9	...........
	359	36	4.49730E-001	-6.78531E-005	0.00000E+000	4.50000E-001	7.64105E-005	9	...........
	360	36.1	4.39718E-001	-7.39173E-005	0.00000E+000	4.40000E-001	7.19265E-005	9	...........
	361	36.2	4.29679E-001	-8.01661E-005	0.00000E+000	4.30000E-001	7.91942E-005	9	...........
	362	36.3	4.19724E-001	-8.65793E-005	0.00000E+000	4.20000E-001	7.39101E-005	9	...........
	363	36.4	4.09747E-001	-9.31310E-005	0.00000E+000	4.10000E-001	7.51936E-005	9	...........
	364	36.5	3.99905E-001	-9.99665E-005	0.00000E+000	4.00000E-001	6.97595E-005	9	...........
	365	36.6	3.89758E-001	-1.06936E-004	0.00000E+000	3.90000E-001	7.65438E-005	9	...........
	366	36.7	3.79816E-001	-1.14130E-004	0.00000E+000	3.80000E-001	7.55103E-005	9	...........
	367	36.8	3.69799E-001	-1.21674E-004	0.00000E+000	3.70000E-001	8.09612E-005	9	...........
	368	36.9	3.59933E-001	-1.29567E-004	0.00000E+000	3.60000E-001	7.35100E-005	9	...........
	369	37	3.49773E-001	-1.37818E-004	0.00000E+000	3.50000E-001	7.92276E-005	9	...........
	370	37.1	3.39819E-001	-1.46433E-004	0.00000E+000	3.40000E-001	7.43435E-005	9	...........
	371	37.2	3.29873E-001	-1.55649E-004	0.00000E+000	3.30000E-001	8.18446E-005	9	...........
	372	37.3	3.19829E-001	-1.65407E-004	0.00000E+000	3.20000E-001	7.57604E-005	9	...........
	373	37.4	3.09826E-001	-1.75678E-004	0.00000E+000	3.10000E-001	7.86942E-005	9	...........
	374	37.5	2.99882E-001	-1.86764E-004	0.00000E+000	3.00000E-001	7.64272E-005	9	...........
	375	37.6	2.89891E-001	-1.98838E-004	0.00000E+000	2.90000E-001	8.28948E-005	9	...........
	376	37.7	2.80022E-001	-2.11734E-004	0.00000E+000	2.80000E-001	7.57771E-005	9	...........
	377	37.8	2.69859E-001	-2.25835E-004	0.00000E+000	2.70000E-001	7.90776E-005	9	...........
	378	37.9	2.59904E-001	-2.40984E-004	0.00000E+000	2.60000E-001	7.69439E-005	9	...........
	379	38	2.49935E-001	-2.57657E-004	0.00000E+000	2.50000E-001	8.00777E-005	9	...........
	380	38.1	2.39968E-001	-2.75770E-004	0.00000E+000	2.40000E-001	7.54937E-005	9	...........
	381	38.2	2.29932E-001	-2.95433E-004	0.00000E+000	2.30000E-001	8.51785E-005	9	...........
	382	38.3	2.19909E-001	-3.16971E-004	0.00000E+000	2.20000E-001	7.79107E-005	9	...........
	383	38.4	2.09941E-001	-3.40394E-004	0.00000E+000	2.10000E-001	8.30448E-005	9	...........
	384	38.5	2.00108E-001	-3.65818E-004	0.00000E+000	2.00000E-001	7.75773E-005	9	...........
	385	38.6	1.89933E-001	-3.93442E-004	0.00000E+000	1.90000E-001	8.11945E-005	9	...........
	386	38.7	1.79926E-001	-4.23298E-004	0.00000E+000	1.80000E-001	8.10445E-005	9	...........
	387	38.8	1.70028E-001	-4.55414E-004	0.00000E+000	1.70000E-001	7.98277E-005	9	...........
	388	38.9	1.60091E-001	-4.89582E-004	0.00000E+000	1.60000E-001	7.69106E-005	9	...........
	389	39	1.50004E-001	-5.25441E-004	0.00000E+000	1.50000E-001	7.42935E-005	9	...........
	390	39.1	1.39972E-001	-5.62548E-004	0.00000E+000	1.40000E-001	7.14931E-005	9	...........
	391	39.2	1.30042E-001	-6.00231E-004	0.00000E+000	1.30000E-001	7.44269E-005	9	...........
	392	39.3	1.20110E-001	-6.37417E-004	0.00000E+000	1.20000E-001	7.65272E-005	9	...........
	393	39.4	1.10048E-001	-6.73038E-004	0.00000E+000	1.10000E-001	7.15264E-005	9	...........
	394	39.5	9.99971E-002	-7.05603E-004	0.00000E+000	1.00000E-001	7.73440E-005	9	...........
	395	39.6	9.00156E-002	-7.33530E-004	0.00000E+000	9.00000E-002	7.41768E-005	9	...........
	396	39.7	8.01236E-002	-7.55039E-004	0.00000E+000	8.00000E-002	7.92276E-005	9	...........
	397	39.8	7.01423E-002	-7.68856E-004	0.00000E+000	7.00000E-002	7.41101E-005	9	...........
	398	39.9	6.00552E-002	-7.73832E-004	0.00000E+000	6.00000E-002	8.07112E-005	9	...........
	399	40	5.01162E-002	-7.69097E-004	0.00000E+000	5.00000E-002	7.50936E-005	9	...........
	400	40.1	4.01308E-002	-7.54907E-004	0.00000E+000	4.00000E-002	7.60271E-005	9	...........
	401	40.2	3.00858E-002	-7.31846E-004	0.00000E+000	3.00000E-002	7.19765E-005	9	...........
	402	40.3	2.00251E-002	-7.01215E-004	0.00000E+000	2.00000E-002	7.40935E-005	9	...........
	403	40.4	1.00905E-002	-6.64213E-004	0.00000E+000	1.00000E-002	7.20098E-005	9	...........
	404	40.5	1.28081E-004	-6.22632E-004	0.00000E+000	9.31323E-010	7.24099E-005	9	...........
	405	40.6	-9.74705E-003	-5.78856E-004	0.00000E+000	-1.00000E-002	6.88093E-005	9	...........
[...]
	2546	254.7	6.59604E-001	2.10562E-004	0.00000E+000	6.60000E-001	8.35282E-005	9	...........
	2547	254.8	6.49674E-001	1.73953E-004	0.00000E+000	6.50000E-001	8.18613E-005	9	...........
	2548	254.9	6.39620E-001	1.45680E-004	0.00000E+000	6.40000E-001	8.08278E-005	9	...........
	2549	255	6.29519E-001	1.22695E-004	0.00000E+000	6.30000E-001	8.23280E-005	9	...........
	2550	255.1	6.19613E-001	1.03631E-004	0.00000E+000	6.20000E-001	7.91942E-005	9	...........
	2551	255.2	6.09710E-001	8.72497E-005	0.00000E+000	6.10000E-001	8.04111E-005	9	...........
	2552	255.3	5.99612E-001	7.29076E-005	0.00000E+000	6.00000E-001	7.53437E-005	9	...........
	2553	255.4	5.89560E-001	6.00546E-005	0.00000E+000	5.90000E-001	7.83108E-005	9	...........
	2554	255.5	5.79689E-001	4.83668E-005	0.00000E+000	5.80000E-001	7.20932E-005	9	...........
	2555	255.6	5.69714E-001	3.76190E-005	0.00000E+000	5.70000E-001	7.77440E-005	9	...........
	2556	255.7	5.59696E-001	2.76053E-005	0.00000E+000	5.60000E-001	7.35601E-005	9	...........
	2557	255.8	5.49631E-001	1.81807E-005	0.00000E+000	5.50000E-001	7.91442E-005	9	...........
	2558	255.9	5.39692E-001	9.40695E-006	0.00000E+000	5.40000E-001	7.58104E-005	9	...........
	2559	256	5.29723E-001	9.53863E-007	0.00000E+000	5.30000E-001	7.93276E-005	9	...........
	2560	256.1	5.19700E-001	-6.96092E-006	0.00000E+000	5.20000E-001	7.15764E-005	9	...........
	2561	256.2	5.09655E-001	-1.47241E-005	0.00000E+000	5.10000E-001	7.68772E-005	9	...........
	2562	256.3	4.99712E-001	-2.22326E-005	0.00000E+000	5.00000E-001	7.18265E-005	9	...........
	2563	256.4	4.89738E-001	-2.94324E-005	0.00000E+000	4.90000E-001	7.76774E-005	9	...........
	2564	256.5	4.79868E-001	-3.65682E-005	0.00000E+000	4.80000E-001	7.54937E-005	9	...........
	2565	256.6	4.69718E-001	-4.36343E-005	0.00000E+000	4.70000E-001	8.17446E-005	9	...........
	2566	256.7	4.59753E-001	-5.04513E-005	0.00000E+000	4.60000E-001	7.18598E-005	9	...........
	2567	256.8	4.49756E-001	-5.73959E-005	0.00000E+000	4.50000E-001	8.37616E-005	9	...........
	2568	256.9	4.39755E-001	-6.42239E-005	0.00000E+000	4.40000E-001	7.77607E-005	9	...........
	2569	257	4.29712E-001	-7.11004E-005	0.00000E+000	4.30000E-001	8.30115E-005	9	...........
	2570	257.1	4.19754E-001	-7.80977E-005	0.00000E+000	4.20000E-001	8.02777E-005	9	...........
	2571	257.2	4.09768E-001	-8.50455E-005	0.00000E+000	4.10000E-001	8.57619E-005	9	...........
	2572	257.3	3.99965E-001	-9.22660E-005	0.00000E+000	4.00000E-001	7.87609E-005	9	...........
	2573	257.4	3.89785E-001	-9.95547E-005	0.00000E+000	3.90000E-001	8.54785E-005	9	...........
	2574	257.5	3.79831E-001	-1.07132E-004	0.00000E+000	3.80000E-001	7.90942E-005	9	...........
	2575	257.6	3.69807E-001	-1.14915E-004	0.00000E+000	3.70000E-001	8.66954E-005	9	...........
	2576	257.7	3.59948E-001	-1.23031E-004	0.00000E+000	3.60000E-001	8.13779E-005	9	...........
	2577	257.8	3.49800E-001	-1.31630E-004	0.00000E+000	3.50000E-001	8.64787E-005	9	...........
	2578	257.9	3.39830E-001	-1.40819E-004	0.00000E+000	3.40000E-001	7.77440E-005	9	...........
	2579	258	3.29892E-001	-1.50566E-004	0.00000E+000	3.30000E-001	8.19280E-005	9	...........
	2580	258.1	3.19852E-001	-1.61185E-004	0.00000E+000	3.20000E-001	7.53437E-005	9	...........
	2581	258.2	3.09848E-001	-1.72529E-004	0.00000E+000	3.10000E-001	8.32282E-005	9	...........
	2582	258.3	2.99886E-001	-1.85072E-004	0.00000E+000	3.00000E-001	7.76107E-005	9	...........
	2583	258.4	2.89900E-001	-1.98742E-004	0.00000E+000	2.90000E-001	8.20280E-005	9	...........
	2584	258.5	2.80052E-001	-2.13806E-004	0.00000E+000	2.80000E-001	7.78774E-005	9	...........
	2585	258.6	2.69891E-001	-2.30662E-004	0.00000E+000	2.70000E-001	8.31282E-005	9	...........
	2586	258.7	2.59911E-001	-2.49306E-004	0.00000E+000	2.60000E-001	7.89609E-005	9	...........
	2587	258.8	2.49948E-001	-2.70047E-004	0.00000E+000	2.50000E-001	7.88942E-005	9	...........
	2588	258.9	2.39985E-001	-2.93310E-004	0.00000E+000	2.40000E-001	7.46436E-005	9	...........
	2589	259	2.29955E-001	-3.19090E-004	0.00000E+000	2.30000E-001	7.93443E-005	9	...........
	2590	259.1	2.19913E-001	-3.48247E-004	0.00000E+000	2.20000E-001	7.64105E-005	9	...........
	2591	259.2	2.09966E-001	-3.80672E-004	0.00000E+000	2.10000E-001	7.91776E-005	9	...........
	2592	259.3	2.00111E-001	-4.17159E-004	0.00000E+000	2.00000E-001	7.38434E-005	9	...........
	2593	259.4	1.89944E-001	-4.57707E-004	0.00000E+000	1.90000E-001	7.71106E-005	9	...........
	2594	259.5	1.79931E-001	-5.02759E-004	0.00000E+000	1.80000E-001	7.68939E-005	9	...........
	2595	259.6	1.70048E-001	-5.52464E-004	0.00000E+000	1.70000E-001	7.40268E-005	9	...........
	2596	259.7	1.60099E-001	-6.06908E-004	0.00000E+000	1.60000E-001	7.54437E-005	9	...........
	2597	259.8	1.50029E-001	-6.65747E-004	0.00000E+000	1.50000E-001	7.31100E-005	9	...........
	2598	259.9	1.39993E-001	-7.27834E-004	0.00000E+000	1.40000E-001	7.04429E-005	9	...........
	2599	260	1.30063E-001	-7.91754E-004	0.00000E+000	1.30000E-001	7.19765E-005	9	...........
	2600	260.1	1.20119E-001	-8.55650E-004	0.00000E+000	1.20000E-001	7.45269E-005	9	...........
	2601	260.2	1.10074E-001	-9.16252E-004	0.00000E+000	1.10000E-001	7.46269E-005	9	...........
	2602	260.3	1.00025E-001	-9.70123E-004	0.00000E+000	1.00000E-001	7.70439E-005	9	...........
	2603	260.4	9.00495E-002	-1.01324E-003	0.00000E+000	9.00000E-002	7.42935E-005	9	...........
	2604	260.5	8.01338E-002	-1.04083E-003	0.00000E+000	8.00000E-002	7.95610E-005	9	...........
	2605	260.6	7.01924E-002	-1.04905E-003	0.00000E+000	7.00000E-002	7.35934E-005	9	...........
	2606	260.7	6.00783E-002	-1.03547E-003	0.00000E+000	6.00000E-002	7.62105E-005	9	...........
	2607	260.8	5.01331E-002	-9.99226E-004	0.00000E+000	5.00000E-002	7.24265E-005	9	...........
	2608	260.9	4.01426E-002	-9.42062E-004	0.00000E+000	4.00000E-002	7.50603E-005	9	...........
	2609	261	3.01161E-002	-8.67648E-004	0.00000E+000	3.00000E-002	6.81259E-005	9	...........
	2610	261.1	2.00557E-002	-7.81489E-004	0.00000E+000	2.00000E-002	7.71273E-005	9	...........
	2611	261.2	1.00995E-002	-6.88714E-004	0.00000E+000	1.00000E-002	7.32600E-005	9	...........
	2612	261.3	1.31931E-004	-5.94531E-004	0.00000E+000	9.31323E-010	7.64772E-005	9	...........
	2613	261.4	-9.68951E-003	-5.03994E-004	0.00000E+000	-1.00000E-002	7.21765E-005	9	...........
	2614	261.5	-1.98276E-002	-4.18857E-004	0.00000E+000	-2.00000E-002	7.93776E-005	9	...........
	2615	261.6	-2.97819E-002	-3.40941E-004	0.00000E+000	-3.00000E-002	7.38101E-005	9	...........
	2616	261.7	-3.98097E-002	-2.70497E-004	0.00000E+000	-4.00000E-002	7.67105E-005	9	...........
	2617	261.8	-4.97333E-002	-2.07516E-004	0.00000E+000	-5.00000E-002	6.78259E-005	9	...........
	2618	261.9	-5.98172E-002	-1.51062E-004	0.00000E+000	-6.00000E-002	7.51603E-005	9	...........
	2619	262	-6.98104E-002	-1.00405E-004	0.00000E+000	-7.00000E-002	7.34434E-005	9	...........
	2620	262.1	-7.97573E-002	-5.49053E-005	0.00000E+000	-8.00000E-002	7.96777E-005	9	...........
	2621	262.2	-8.97939E-002	-1.36588E-005	0.00000E+000	-9.00000E-002	7.57937E-005	9	...........
	2622	262.3	-9.97721E-002	2.36326E-005	0.00000E+000	-1.00000E-001	7.94276E-005	9	...........
	2623	262.4	-1.09723E-001	5.71077E-005	0.00000E+000	-1.10000E-001	7.44102E-005	9	...........
	2624	262.5	-1.19742E-001	8.67616E-005	0.00000E+000	-1.20000E-001	7.75440E-005	9	...........
	2625	262.6	-1.29646E-001	1.12165E-004	0.00000E+000	-1.30000E-001	7.11597E-005	9	...........
	2626	262.7	-1.39768E-001	1.32870E-004	0.00000E+000	-1.40000E-001	7.73106E-005	9	...........
	2627	262.8	-1.49715E-001	1.48660E-004	0.00000E+000	-1.50000E-001	7.24932E-005	9	...........
	2628	262.9	-1.59696E-001	1.59134E-004	0.00000E+000	-1.60000E-001	7.99110E-005	9	...........
	2629	263	-1.69709E-001	1.64213E-004	0.00000E+000	-1.70000E-001	7.27766E-005	9	...........
	2630	263.1	-1.79703E-001	1.64220E-004	0.00000E+000	-1.80000E-001	7.59604E-005	9	...........
	2631	263.2	-1.89697E-001	1.59508E-004	0.00000E+000	-1.90000E-001	7.48269E-005	9	...........
	2632	263.3	-1.99697E-001	1.51159E-004	0.00000E+000	-2.00000E-001	7.96610E-005	9	...........
	2633	263.4	-2.09500E-001	1.39558E-004	0.00000E+000	-2.10000E-001	7.13931E-005	9	...........
	2634	263.5	-2.19736E-001	1.25946E-004	0.00000E+000	-2.20000E-001	7.73273E-005	9	...........
	2635	263.6	-2.29689E-001	1.11084E-004	0.00000E+000	-2.30000E-001	7.44769E-005	9	...........
	2636	263.7	-2.39619E-001	9.56004E-005	0.00000E+000	-2.40000E-001	7.58104E-005	9	...........
	2637	263.8	-2.49551E-001	8.01081E-005	0.00000E+000	-2.50000E-001	7.48436E-005	9	...........
	2638	263.9	-2.59666E-001	6.50313E-005	0.00000E+000	-2.60000E-001	7.86775E-005	9	...........
	2639	264	-2.69695E-001	5.04006E-005	0.00000E+000	-2.70000E-001	7.70273E-005	9	...........
	2640	264.1	-2.79620E-001	3.65464E-005	0.00000E+000	-2.80000E-001	8.02611E-005	9	...........
	2641	264.2	-2.89507E-001	2.30912E-005	0.00000E+000	-2.90000E-001	7.39268E-005	9	...........
	2642	264.3	-2.99647E-001	1.00991E-005	0.00000E+000	-3.00000E-001	7.38101E-005	9	...........
	2643	264.4	-3.09652E-001	-2.85478E-006	0.00000E+000	-3.10000E-001	7.46269E-005	9	...........
	2644	264.5	-3.19614E-001	-1.61514E-005	0.00000E+000	-3.20000E-001	7.69939E-005	9	...........
	2645	264.6	-3.29485E-001	-3.02548E-005	0.00000E+000	-3.30000E-001	7.40101E-005	9	...........
	2646	264.7	-3.39563E-001	-4.55098E-005	0.00000E+000	-3.40000E-001	6.88260E-005	9	...........
	2647	264.8	-3.49603E-001	-6.21688E-005	0.00000E+000	-3.50000E-001	7.47936E-005	9	...........
	2648	264.9	-3.59544E-001	-8.06485E-005	0.00000E+000	-3.60000E-001	7.63438E-005	9	...........
	2649	265	-3.69508E-001	-1.02038E-004	0.00000E+000	-3.70000E-001	7.32767E-005	9	...........
	2650	265.1	-3.79597E-001	-1.27871E-004	0.00000E+000	-3.80000E-001	7.47436E-005	9	...........
	2651	265.2	-3.89621E-001	-1.60763E-004	0.00000E+000	-3.90000E-001	7.69439E-005	9	...........
	2652	265.3	-3.99566E-001	-2.04118E-004	0.00000E+000	-4.00000E-001	7.52603E-005	9	...........
	2653	265.4	-4.09492E-001	-2.62123E-004	0.00000E+000	-4.10000E-001	7.56770E-005	9	...........
	2654	265.5	-4.19486E-001	-3.35055E-004	0.00000E+000	-4.20000E-001	7.36934E-005	9	...........
	2655	265.6	-4.29519E-001	-4.12863E-004	0.00000E+000	-4.30000E-001	7.29766E-005	9	...........
	2656	265.7	-4.39452E-001	-4.71848E-004	0.00000E+000	-4.40000E-001	7.10263E-005	9	...........
	2657	265.8	-4.49488E-001	-4.93713E-004	0.00000E+000	-4.50000E-001	7.19265E-005	9	...........
	2658	265.9	-4.59443E-001	-4.84931E-004	0.00000E+000	-4.60000E-001	6.76425E-005	9	...........
	2659	266	-4.69527E-001	-4.66089E-004	0.00000E+000	-4.70000E-001	7.40268E-005	9	...........
	2660	266.1	-4.79467E-001	-4.51417E-004	0.00000E+000	-4.80000E-001	7.08430E-005	9	...........
	2661	266.2	-4.89417E-001	-4.45298E-004	0.00000E+000	-4.90000E-001	7.42935E-005	9	...........
	2662	266.3	-4.99467E-001	-4.47941E-004	0.00000E+000	-5.00000E-001	7.04596E-005	9	...........
	2663	266.4	-5.09462E-001	-4.60217E-004	0.00000E+000	-5.10000E-001	7.23265E-005	9	...........
	2664	266.5	-5.19404E-001	-4.82799E-004	0.00000E+000	-5.20000E-001	7.11430E-005	9	...........
	2665	266.6	-5.29405E-001	-5.18841E-004	0.00000E+000	-5.30000E-001	7.69272E-005	9	...........
	2666	266.7	-5.39339E-001	-5.71015E-004	0.00000E+000	-5.40000E-001	7.26266E-005	9	...........
	2667	266.8	-5.49403E-001	-6.46094E-004	0.00000E+000	-5.50000E-001	7.84608E-005	9	...........
	2668	266.9	-5.59359E-001	-7.45918E-004	0.00000E+000	-5.60000E-001	7.26599E-005	9	...........
	2669	267	-5.69335E-001	-8.66900E-004	0.00000E+000	-5.70000E-001	7.97110E-005	9	...........
	2670	267.1	-5.79343E-001	-9.85673E-004	0.00000E+000	-5.80000E-001	7.43769E-005	9	...........
	2671	267.2	-5.89322E-001	-1.06189E-003	0.00000E+000	-5.90000E-001	7.84941E-005	9	...........
	2672	267.3	-5.99313E-001	-1.08581E-003	0.00000E+000	-6.00000E-001	7.77274E-005	9	...........
	2673	267.4	-6.09317E-001	-1.08852E-003	0.00000E+000	-6.10000E-001	8.31615E-005	9	...........
	2674	267.5	-6.19143E-001	-1.09463E-003	0.00000E+000	-6.20000E-001	7.55103E-005	9	...........
	2675	267.6	-6.29344E-001	-1.11302E-003	0.00000E+000	-6.30000E-001	8.08612E-005	9	...........
	2676	267.7	-6.39298E-001	-1.14502E-003	0.00000E+000	-6.40000E-001	7.66772E-005	9	...........
	2677	267.8	-6.49236E-001	-1.19389E-003	0.00000E+000	-6.50000E-001	7.95776E-005	9	...........
	2678	267.9	-6.59201E-001	-1.25980E-003	0.00000E+000	-6.60000E-001	7.43602E-005	9	...........
	2679	268	-6.69279E-001	-1.34261E-003	0.00000E+000	-6.70000E-001	7.88775E-005	9	...........
	2680	268.1	-6.79289E-001	-1.46578E-003	0.00000E+000	-6.80000E-001	7.53603E-005	9	...........
CURVE11	TABLE
	Pt	T	Vf	Im	Vu	Sig	Ach	IERange	Over
	#	s	V vs. Ref.	A	V	V	V	#	bits
	2681	268.2	-6.69391E-001	-5.26323E-005	0.00000E+000	-6.70000E-001	8.06778E-005	9	...........
	2682	268.3	-6.59375E-001	3.52577E-004	0.00000E+000	-6.60000E-001	7.49769E-005	9	...........
	2683	268.4	-6.49376E-001	5.26208E-004	0.00000E+000	-6.50000E-001	8.01944E-005	9	...........
	2684	268.5	-6.39413E-001	6.10771E-004	0.00000E+000	-6.40000E-001	7.32267E-005	9	...........
	2685	268.6	-6.29463E-001	6.58978E-004	0.00000E+000	-6.30000E-001	7.38101E-005	9	...........
	2686	268.7	-6.19295E-001	6.96004E-004	0.00000E+000	-6.20000E-001	6.86927E-005	9	...........
	2687	268.8	-6.09455E-001	7.31816E-004	0.00000E+000	-6.10000E-001	7.20265E-005	9	...........
	2688	268.9	-5.99450E-001	7.72765E-004	0.00000E+000	-6.00000E-001	6.97261E-005	9	...........
	2689	269	-5.89483E-001	8.19720E-004	0.00000E+000	-5.90000E-001	7.70273E-005	9	...........
	2690	269.1	-5.79514E-001	8.67874E-004	0.00000E+000	-5.80000E-001	6.96761E-005	9	...........
	2691	269.2	-5.69476E-001	8.96081E-004	0.00000E+000	-5.70000E-001	7.68272E-005	9	...........
	2692	269.3	-5.59497E-001	8.65258E-004	0.00000E+000	-5.60000E-001	7.07430E-005	9	...........
	2693	269.4	-5.49565E-001	7.77589E-004	0.00000E+000	-5.50000E-001	7.38268E-005	9	...........
	2694	269.5	-5.39482E-001	6.83904E-004	0.00000E+000	-5.40000E-001	6.86260E-005	9	...........
	2695	269.6	-5.29500E-001	6.12672E-004	0.00000E+000	-5.30000E-001	7.62938E-005	9	...........
	2696	269.7	-5.19495E-001	5.67687E-004	0.00000E+000	-5.20000E-001	6.82759E-005	9	...........
	2697	269.8	-5.09576E-001	5.44261E-004	0.00000E+000	-5.10000E-001	7.62105E-005	9	...........
	2698	269.9	-4.99581E-001	5.37297E-004	0.00000E+000	-5.00000E-001	7.35434E-005	9	...........
	2699	270	-4.89503E-001	5.36754E-004	0.00000E+000	-4.90000E-001	7.48269E-005	9	...........
	2700	270.1	-4.79549E-001	5.33766E-004	0.00000E+000	-4.80000E-001	6.94261E-005	9	...........
	2701	270.2	-4.69654E-001	5.32835E-004	0.00000E+000	-4.70000E-001	7.48603E-005	9	...........
	2702	270.3	-4.59558E-001	5.49711E-004	0.00000E+000	-4.60000E-001	7.05763E-005	9	...........
	2703	270.4	-4.49577E-001	5.88345E-004	0.00000E+000	-4.50000E-001	7.23932E-005	9	...........
	2704	270.5	-4.39541E-001	6.36628E-004	0.00000E+000	-4.40000E-001	7.08430E-005	9	...........
	2705	270.6	-4.29626E-001	6.62419E-004	0.00000E+000	-4.30000E-001	7.35601E-005	9	...........
	2706	270.7	-4.19612E-001	6.21745E-004	0.00000E+000	-4.20000E-001	7.01262E-005	9	...........
	2707	270.8	-4.09524E-001	5.22316E-004	0.00000E+000	-4.10000E-001	7.41768E-005	9	...........
	2708	270.9	-3.99631E-001	4.16746E-004	0.00000E+000	-4.00000E-001	7.39601E-005	9	...........
	2709	271	-3.89686E-001	3.36681E-004	0.00000E+000	-3.90000E-001	7.51936E-005	9	...........
	2710	271.1	-3.79659E-001	2.84644E-004	0.00000E+000	-3.80000E-001	7.44769E-005	9	...........
	2711	271.2	-3.69535E-001	2.53194E-004	0.00000E+000	-3.70000E-001	7.46102E-005	9	...........
	2712	271.3	-3.59595E-001	2.35145E-004	0.00000E+000	-3.60000E-001	7.52103E-005	9	...........
	2713	271.4	-3.49667E-001	2.24447E-004	0.00000E+000	-3.50000E-001	7.24932E-005	9	...........
	2714	271.5	-3.39624E-001	2.17879E-004	0.00000E+000	-3.40000E-001	7.41935E-005	9	...........
	2715	271.6	-3.29534E-001	2.13679E-004	0.00000E+000	-3.30000E-001	7.34100E-005	9	...........
	2716	271.7	-3.19680E-001	2.11565E-004	0.00000E+000	-3.20000E-001	7.68439E-005	9	...........
	2717	271.8	-3.09701E-001	2.12145E-004	0.00000E+000	-3.10000E-001	7.54603E-005	9	...........
	2718	271.9	-2.99707E-001	2.16345E-004	0.00000E+000	-3.00000E-001	7.84108E-005	9	...........
	2719	272	-2.89558E-001	2.24351E-004	0.00000E+000	-2.90000E-001	7.36101E-005	9	...........
	2720	272.1	-2.79678E-001	2.36408E-004	0.00000E+000	-2.80000E-001	7.61604E-005	9	...........
	2721	272.2	-2.69750E-001	2.51918E-004	0.00000E+000	-2.70000E-001	7.62605E-005	9	...........
	2722	272.3	-2.59711E-001	2.70818E-004	0.00000E+000	-2.60000E-001	7.97443E-005	9	...........
	2723	272.4	-2.49636E-001	2.92571E-004	0.00000E+000	-2.50000E-001	7.60104E-005	9	...........
	2724	272.5	-2.39674E-001	3.16796E-004	0.00000E+000	-2.40000E-001	8.06778E-005	9	...........
	2725	272.6	-2.29734E-001	3.42926E-004	0.00000E+000	-2.30000E-001	7.84941E-005	9	...........
	2726	272.7	-2.19793E-001	3.70206E-004	0.00000E+000	-2.20000E-001	8.53452E-005	9	...........
	2727	272.8	-2.09591E-001	3.97992E-004	0.00000E+000	-2.10000E-001	7.63938E-005	9	...........
	2728	272.9	-1.99756E-001	4.25337E-004	0.00000E+000	-2.00000E-001	8.31448E-005	9	...........
	2729	273	-1.89752E-001	4.51257E-004	0.00000E+000	-1.90000E-001	7.79774E-005	9	...........
	2730	273.1	-1.79757E-001	4.74926E-004	0.00000E+000	-1.80000E-001	8.14946E-005	9	...........
	2731	273.2	-1.69796E-001	4.95444E-004	0.00000E+000	-1.70000E-001	7.67272E-005	9	...........
	2732	273.3	-1.59767E-001	5.12249E-004	0.00000E+000	-1.60000E-001	7.83275E-005	9	...........
	2733	273.4	-1.49778E-001	5.24852E-004	0.00000E+000	-1.50000E-001	7.43435E-005	9	...........
	2734	273.5	-1.39831E-001	5.33161E-004	0.00000E+000	-1.40000E-001	8.02777E-005	9	...........
	2735	273.6	-1.29724E-001	5.37080E-004	0.00000E+000	-1.30000E-001	7.18431E-005	9	...........
	2736	273.7	-1.19812E-001	5.36871E-004	0.00000E+000	-1.20000E-001	8.06945E-005	9	...........
	2737	273.8	-1.09797E-001	5.32955E-004	0.00000E+000	-1.10000E-001	7.35434E-005	9	...........
	2738	273.9	-9.98550E-002	5.25836E-004	0.00000E+000	-1.00000E-001	7.96110E-005	9	...........
	2739	274	-8.98769E-002	5.15795E-004	0.00000E+000	-9.00000E-002	7.48936E-005	9	...........
	2740	274.1	-7.98276E-002	5.03532E-004	0.00000E+000	-8.00000E-002	8.19780E-005	9	...........
	2741	274.2	-6.98700E-002	4.89413E-004	0.00000E+000	-7.00000E-002	7.60438E-005	9	...........
	2742	274.3	-5.99164E-002	4.73848E-004	0.00000E+000	-6.00000E-002	7.89942E-005	9	...........
	2743	274.4	-4.97959E-002	4.57266E-004	0.00000E+000	-5.00000E-002	7.47602E-005	9	...........
	2744	274.5	-3.98956E-002	4.39940E-004	0.00000E+000	-4.00000E-002	8.13279E-005	9	...........
	2745	274.6	-2.98538E-002	4.22223E-004	0.00000E+000	-3.00000E-002	7.58604E-005	9	...........
	2746	274.7	-1.99301E-002	4.04507E-004	0.00000E+000	-2.00000E-002	7.59771E-005	9	...........
	2747	274.8	-9.86182E-003	3.87016E-004	0.00000E+000	-1.00000E-002	7.17431E-005	9	...........
	2748	274.9	7.95235E-005	3.70099E-004	0.00000E+000	9.31323E-010	7.45435E-005	9	...........
	2749	275	1.00191E-002	3.54060E-004	0.00000E+000	1.00000E-002	7.42102E-005	9	...........
	2750	275.1	1.99288E-002	3.39353E-004	0.00000E+000	2.00000E-002	7.56937E-005	9	...........
	2751	275.2	3.00095E-002	3.26212E-004	0.00000E+000	3.00000E-002	7.19098E-005	9	...........
	2752	275.3	4.00753E-002	3.14761E-004	0.00000E+000	4.00000E-002	6.94428E-005	9	...........
	2753	275.4	5.00408E-002	3.05338E-004	0.00000E+000	5.00000E-002	7.05929E-005	9	...........
	2754	275.5	5.99684E-002	2.97848E-004	0.00000E+000	6.00000E-002	7.64938E-005	9	...........
	2755	275.6	7.00227E-002	2.92501E-004	0.00000E+000	7.00000E-002	7.29766E-005	9	...........
	2756	275.7	8.00705E-002	2.89178E-004	0.00000E+000	8.00000E-002	7.34600E-005	9	...........
	2757	275.8	8.99545E-002	2.87939E-004	0.00000E+000	9.00000E-002	7.39601E-005	9	...........
	2758	275.9	9.98970E-002	2.89053E-004	0.00000E+000	1.00000E-001	7.71939E-005	9	...........
	2759	276	1.09961E-001	2.92267E-004	0.00000E+000	1.10000E-001	7.82608E-005	9	...........
	2760	276.1	1.20066E-001	2.98291E-004	0.00000E+000	1.20000E-001	7.57604E-005	9	...........