File: 20191118/legeringsbildning/CVTESTKRISTALL5BOX4_1.DTA
EXPLAIN
TAG	CV
TITLE	LABEL	CV	Test &Identifier
DATE	LABEL	11/18/2019	Date
TIME	LABEL	10:20:37	Time
NOTES	NOTES	1	&Notes...

PSTAT	PSTAT	REF600-16093	Potentiostat
VINIT	POTEN	0.00000E+000	T	Initial &E (V)
VLIMIT1	POTEN	8.00000E-001	F	Scan Limit &1 (V)
VLIMIT2	POTEN	-6.00000E-001	F	Scan Limit &2 (V)
VFINAL	POTEN	0.00000E+000	T	Final &E (V)
SCANRATE	QUANT	4.99999E+001	&Scan Rate (mV/s)
STEPSIZE	QUANT	1.00000E+000	St&ep Size (mV)
CYCLES	IQUANT	5	C&ycles (#)
IMODE	SELECTOR	1	I/E Range &Mode
IRANGE	QUANT	1.00000E+000	&Max Current (mA)
AREA	QUANT	1.00000E+000	Electrode &Area (cm^2)
ELECTRODETYPE	SELECTOR	0	Electrode Type
STRIPPING	TOGGLE	F	Used for Stripping
POLARITY	TOGGLE	F	Signal Polarity
CONDIT	TWOPARAM	F	1.50000E+001	0.00000E+000	Conditionin&g	Time(s)	E(V)
DELAY	TWOPARAM	T	5.00000E+000	0.00000E+000	Init. De&lay	Time(s)	Stab.(mV/s)
EQDELAY	QUANT	3.00000E+000	Equil. &Time (s)
IRCOMP	SELECTOR	0	IRCom&p
PFCOR	QUANT	0.00000E+000	PF Corr. (ohm)
SAMPLINGMODE	SELECTOR	2	Sampling &Mode
OCVCURVE	TABLE	20
	Pt	T	Vf	Vm	Ach	Over
	#	s	V vs. Ref.	V	V	bits
	0	0.25	1.44780E-001	1.44780E-001	1.03308E-004	...........
	1	0.5	1.44783E-001	1.44917E-001	1.04017E-004	...........
	2	0.75	1.44796E-001	1.44893E-001	1.01642E-004	...........
	3	1	1.44823E-001	1.44842E-001	9.98916E-005	...........
	4	1.25	1.44850E-001	1.44835E-001	1.05517E-004	...........
	5	1.5	1.44865E-001	1.45003E-001	1.07392E-004	...........
	6	1.75	1.44871E-001	1.44655E-001	1.10183E-004	...........
	7	2	1.44868E-001	1.44917E-001	1.05517E-004	...........
	8	2.25	1.44857E-001	1.44946E-001	1.04267E-004	...........
	9	2.5	1.44850E-001	1.44722E-001	1.06308E-004	...........
	10	2.75	1.44854E-001	1.44997E-001	1.09850E-004	...........
	11	3	1.44860E-001	1.44846E-001	1.08683E-004	...........
	12	3.25	1.44868E-001	1.44846E-001	1.07433E-004	...........
	13	3.5	1.44873E-001	1.44805E-001	1.13225E-004	...........
	14	3.75	1.44867E-001	1.44908E-001	1.11808E-004	...........
	15	4	1.44855E-001	1.44724E-001	1.06600E-004	...........
	16	4.25	1.44841E-001	1.44826E-001	1.10433E-004	...........
	17	4.5	1.44829E-001	1.44991E-001	1.07933E-004	...........
	18	4.75	1.44828E-001	1.44724E-001	1.04267E-004	...........
	19	5	1.44840E-001	1.44920E-001	1.02100E-004	...........
EOC	QUANT	0.1448397	Open Circuit (V)
PSTATMODEL	IQUANT	4	Pstat Model
PSTATSECTION	LABEL	REF600-16093	Pstat Section
PSTATSERIALNO	LABEL	16093	Pstat Serial Number
CTRLMODE	IQUANT	1	Control Mode
IESTAB	IQUANT	2	I/E Stability
CASPEED	IQUANT	2	Control Amp Speed
CONVENTION	IQUANT	1	Current Convention
ICHRANGE	IQUANT	2	Ich Range
ICHRANGEMODE	TOGGLE	F	Ich Auto Range
ICHOFFSETENABLE	TOGGLE	F	Ich Offset Enable
ICHOFFSET	QUANT	0	Ich Offset (V)
ICHFILTER	IQUANT	2	Ich Filter
VCHRANGE	IQUANT	2	Vch Range
VCHRANGEMODE	TOGGLE	F	Vch Auto Range
VCHOFFSETENABLE	TOGGLE	F	Vch Offset Enable
VCHOFFSET	QUANT	0	Vch Offset (V)
VCHFILTER	IQUANT	2	Vch Filter
ACHRANGE	IQUANT	2	Ach Range
ACHOFFSETENABLE	TOGGLE	F	Ach Offset Enable
ACHOFFSET	QUANT	0	Ach Offset (V)
ACHFILTER	IQUANT	1	Ach Filter
IERANGELOWERLIMIT	IQUANT	1	I/E Range Lower Limit
IERANGEMODE	TOGGLE	F	I/E AutoRange
IERANGE	IQUANT	9	I/E Range
POSFEEDENABLE	TOGGLE	F	Positive Feedback IR Comp
POSFEEDRESISTANCE	QUANT	0	Positive Feedback Resistance (ohm)
ACHSELECT	IQUANT	0	Ach Select
CABLEID	IQUANT	14	Cable ID
DCCALDATE	LABEL	11/5/2019	DC Calibration Date
ACCALDATE	LABEL		AC Calibration Date
THERMOSELECT	IQUANT	1	Thermo Select
FRAMEWORKVERSION	QUANT	6.12	Framework Version
INSTRUMENTVERSION	LABEL	3.11	Instrument Version
CURVE1	TABLE
	Pt	T	Vf	Im	Vu	Sig	Ach	IERange	Over
	#	s	V vs. Ref.	A	V	V	V	#	bits
	0	0.02	1.44577E-001	4.40524E-007	0.00000E+000	1.44850E-001	1.13252E-004	9	...........
	4	0.1	1.48729E-001	1.47960E-006	0.00000E+000	1.48850E-001	1.09332E-004	9	...........
	8	0.18	1.52554E-001	1.47526E-006	0.00000E+000	1.52850E-001	1.04078E-004	9	...........
	12	0.26	1.56648E-001	1.64457E-006	0.00000E+000	1.56850E-001	1.02994E-004	9	...........
	16	0.34	1.60519E-001	1.59269E-006	0.00000E+000	1.60850E-001	1.04328E-004	9	...........
	20	0.42	1.64535E-001	1.72431E-006	0.00000E+000	1.64850E-001	1.12251E-004	9	...........
	24	0.5	1.68553E-001	1.89596E-006	0.00000E+000	1.68850E-001	1.10417E-004	9	...........
	28	0.58	1.72680E-001	1.79187E-006	0.00000E+000	1.72850E-001	1.04745E-004	9	...........
	32	0.66	1.76557E-001	1.78586E-006	0.00000E+000	1.76850E-001	1.12001E-004	9	...........
	36	0.74	1.80680E-001	1.79821E-006	0.00000E+000	1.80850E-001	1.11000E-004	9	...........
	40	0.82	1.84520E-001	1.90447E-006	0.00000E+000	1.84850E-001	1.12835E-004	9	...........
	44	0.9	1.88519E-001	1.74366E-006	0.00000E+000	1.88850E-001	1.13502E-004	9	...........
	48	0.98	1.92459E-001	1.32763E-006	0.00000E+000	1.92850E-001	1.14420E-004	9	...........
	52	1.06	1.96574E-001	1.69111E-006	0.00000E+000	1.96850E-001	1.15254E-004	9	...........
	56	1.14	2.00549E-001	1.80188E-006	0.00000E+000	2.00850E-001	1.07497E-004	9	...........
	60	1.22	2.04620E-001	1.89496E-006	0.00000E+000	2.04850E-001	1.07414E-004	9	...........
	64	1.3	2.08470E-001	2.54602E-006	0.00000E+000	2.08850E-001	1.10917E-004	9	...........
	68	1.38	2.12472E-001	2.02157E-006	0.00000E+000	2.12850E-001	1.11417E-004	9	...........
	72	1.46	2.16433E-001	1.95651E-006	0.00000E+000	2.16850E-001	1.16004E-004	9	...........
	76	1.54	2.20617E-001	2.00305E-006	0.00000E+000	2.20850E-001	1.11334E-004	9	...........
	80	1.62	2.24463E-001	2.08062E-006	0.00000E+000	2.24850E-001	1.10500E-004	9	...........
	84	1.7	2.28533E-001	2.65278E-006	0.00000E+000	2.28850E-001	1.13586E-004	9	...........
	88	1.78	2.32463E-001	2.08179E-006	0.00000E+000	2.32850E-001	1.10000E-004	9	...........
	92	1.86	2.36457E-001	2.20723E-006	0.00000E+000	2.36850E-001	1.06497E-004	9	...........
	96	1.94	2.40435E-001	2.42175E-006	0.00000E+000	2.40850E-001	1.02994E-004	9	...........
	100	2.02	2.44636E-001	2.23325E-006	0.00000E+000	2.44850E-001	1.12418E-004	9	...........
	104	2.1	2.48452E-001	1.71664E-006	0.00000E+000	2.48850E-001	1.06663E-004	9	...........
	108	2.18	2.52492E-001	2.32333E-006	0.00000E+000	2.52850E-001	1.08498E-004	9	...........
	112	2.26	2.56454E-001	2.53385E-006	0.00000E+000	2.56850E-001	1.03911E-004	9	...........
	116	2.34	2.60426E-001	2.37571E-006	0.00000E+000	2.60850E-001	1.07831E-004	9	...........
	120	2.42	2.64422E-001	3.03795E-006	0.00000E+000	2.64850E-001	1.09583E-004	9	...........
	124	2.5	2.68398E-001	2.39156E-006	0.00000E+000	2.68850E-001	1.09666E-004	9	...........
	128	2.58	2.72459E-001	2.55987E-006	0.00000E+000	2.72850E-001	1.09416E-004	9	...........
	132	2.66	2.76605E-001	2.61859E-006	0.00000E+000	2.76850E-001	1.13252E-004	9	...........
	136	2.74	2.80459E-001	2.75387E-006	0.00000E+000	2.80850E-001	1.14086E-004	9	...........
	140	2.82	2.84417E-001	2.96139E-006	0.00000E+000	2.84850E-001	1.10583E-004	9	...........
	144	2.9	2.88393E-001	2.69716E-006	0.00000E+000	2.88850E-001	1.04829E-004	9	...........
	148	2.98	2.92377E-001	2.84979E-006	0.00000E+000	2.92850E-001	1.05663E-004	9	...........
	152	3.06	2.96404E-001	2.95038E-006	0.00000E+000	2.96850E-001	1.01409E-004	9	...........
	156	3.14	3.00440E-001	3.15305E-006	0.00000E+000	3.00850E-001	1.01409E-004	9	...........
	160	3.22	3.04410E-001	2.42759E-006	0.00000E+000	3.04850E-001	1.08749E-004	9	...........
	164	3.3	3.08411E-001	3.05597E-006	0.00000E+000	3.08850E-001	1.12085E-004	9	...........
	168	3.38	3.12397E-001	3.17440E-006	0.00000E+000	3.12850E-001	1.06163E-004	9	...........
	172	3.46	3.16361E-001	3.17357E-006	0.00000E+000	3.16850E-001	1.10333E-004	9	...........
	176	3.54	3.20315E-001	3.89620E-006	0.00000E+000	3.20850E-001	1.01743E-004	9	...........
	180	3.62	3.24399E-001	3.26398E-006	0.00000E+000	3.24850E-001	1.10834E-004	9	...........
	184	3.7	3.28407E-001	3.44247E-006	0.00000E+000	3.28850E-001	1.06747E-004	9	...........
	188	3.78	3.32401E-001	3.62863E-006	0.00000E+000	3.32850E-001	1.07664E-004	9	...........
	192	3.86	3.36371E-001	3.93473E-006	0.00000E+000	3.36850E-001	9.90739E-005	9	...........
	196	3.94	3.40336E-001	4.27136E-006	0.00000E+000	3.40850E-001	1.07331E-004	9	...........
	200	4.02	3.44342E-001	4.10371E-006	0.00000E+000	3.44850E-001	1.02410E-004	9	...........
	204	4.1	3.48374E-001	4.11339E-006	0.00000E+000	3.48850E-001	1.10417E-004	9	...........
	208	4.18	3.52358E-001	4.18295E-006	0.00000E+000	3.52850E-001	1.10000E-004	9	...........
	212	4.26	3.56346E-001	4.29938E-006	0.00000E+000	3.56850E-001	1.03578E-004	9	...........
	216	4.34	3.60363E-001	3.95158E-006	0.00000E+000	3.60850E-001	1.12752E-004	9	...........
	220	4.42	3.64338E-001	4.55477E-006	0.00000E+000	3.64850E-001	1.06497E-004	9	...........
	224	4.5	3.68352E-001	4.58830E-006	0.00000E+000	3.68850E-001	1.12251E-004	9	...........
	228	4.58	3.72512E-001	4.82651E-006	0.00000E+000	3.72850E-001	1.10417E-004	9	...........
	232	4.66	3.76366E-001	6.13949E-006	0.00000E+000	3.76850E-001	1.05579E-004	9	...........
	236	4.74	3.80356E-001	5.27607E-006	0.00000E+000	3.80850E-001	1.08749E-004	9	...........
	240	4.82	3.84337E-001	5.69076E-006	0.00000E+000	3.84850E-001	1.08582E-004	9	...........
	244	4.9	3.88298E-001	5.87242E-006	0.00000E+000	3.88850E-001	1.14503E-004	9	...........
	248	4.98	3.92324E-001	5.75131E-006	0.00000E+000	3.92850E-001	1.12418E-004	9	...........
	252	5.06	3.96291E-001	5.60886E-006	0.00000E+000	3.96850E-001	1.07581E-004	9	...........
	256	5.14	4.00337E-001	6.10779E-006	0.00000E+000	4.00850E-001	1.08999E-004	9	...........
	260	5.22	4.04377E-001	6.39004E-006	0.00000E+000	4.04850E-001	1.15170E-004	9	...........
	264	5.3	4.08346E-001	6.49430E-006	0.00000E+000	4.08850E-001	1.07331E-004	9	...........
	268	5.38	4.12245E-001	6.96470E-006	0.00000E+000	4.12850E-001	1.11751E-004	9	...........
	272	5.46	4.16271E-001	6.77054E-006	0.00000E+000	4.16850E-001	1.13419E-004	9	...........
	276	5.54	4.20240E-001	7.21442E-006	0.00000E+000	4.20850E-001	1.17839E-004	9	...........
	280	5.62	4.24317E-001	7.74455E-006	0.00000E+000	4.24850E-001	1.05746E-004	9	...........
	284	5.7	4.28293E-001	8.01445E-006	0.00000E+000	4.28850E-001	1.13753E-004	9	...........
	288	5.78	4.32317E-001	8.44516E-006	0.00000E+000	4.32850E-001	1.09416E-004	9	...........
	292	5.86	4.36255E-001	8.39261E-006	0.00000E+000	4.36850E-001	1.08832E-004	9	...........
	296	5.94	4.40281E-001	8.84467E-006	0.00000E+000	4.40850E-001	1.17339E-004	9	...........
	300	6.02	4.44232E-001	9.08288E-006	0.00000E+000	4.44850E-001	1.17005E-004	9	...........
	304	6.1	4.48243E-001	9.56113E-006	0.00000E+000	4.48850E-001	1.16838E-004	9	...........
	308	6.18	4.52236E-001	1.00005E-005	0.00000E+000	4.52850E-001	1.20508E-004	9	...........
	312	6.26	4.56283E-001	1.03170E-005	0.00000E+000	4.56850E-001	1.10667E-004	9	...........
	316	6.34	4.60264E-001	1.03738E-005	0.00000E+000	4.60850E-001	1.16004E-004	9	...........
	320	6.42	4.64284E-001	1.10046E-005	0.00000E+000	4.64850E-001	1.12251E-004	9	...........
	324	6.5	4.68241E-001	1.15290E-005	0.00000E+000	4.68850E-001	1.11918E-004	9	...........
	328	6.58	4.72230E-001	1.11418E-005	0.00000E+000	4.72850E-001	1.14170E-004	9	...........
	332	6.66	4.76228E-001	1.24595E-005	0.00000E+000	4.76850E-001	1.17005E-004	9	...........
	336	6.74	4.80280E-001	1.27868E-005	0.00000E+000	4.80850E-001	1.13336E-004	9	...........
	340	6.82	4.84235E-001	1.32582E-005	0.00000E+000	4.84850E-001	1.14336E-004	9	...........
	344	6.9	4.88243E-001	1.46921E-005	0.00000E+000	4.88850E-001	1.16922E-004	9	...........
	348	6.98	4.92202E-001	1.42155E-005	0.00000E+000	4.92850E-001	1.11918E-004	9	...........
	352	7.06	4.96231E-001	1.44804E-005	0.00000E+000	4.96850E-001	1.14003E-004	9	...........
	356	7.14	5.00190E-001	1.52971E-005	0.00000E+000	5.00850E-001	1.19674E-004	9	...........
	360	7.22	5.04243E-001	1.56314E-005	0.00000E+000	5.04850E-001	1.11751E-004	9	...........
	364	7.3	5.08198E-001	1.65295E-005	0.00000E+000	5.08850E-001	1.11751E-004	9	...........
	368	7.38	5.12218E-001	1.71664E-005	0.00000E+000	5.12850E-001	1.10917E-004	9	...........
	372	7.46	5.16175E-001	1.80739E-005	0.00000E+000	5.16850E-001	1.12168E-004	9	...........
	376	7.54	5.20197E-001	1.85371E-005	0.00000E+000	5.20850E-001	1.14670E-004	9	...........
	380	7.62	5.24152E-001	1.85943E-005	0.00000E+000	5.24850E-001	1.11668E-004	9	...........
	384	7.7	5.28231E-001	1.88989E-005	0.00000E+000	5.28850E-001	1.13836E-004	9	...........
	388	7.78	5.32214E-001	1.95088E-005	0.00000E+000	5.32850E-001	1.08081E-004	9	...........
	392	7.86	5.36254E-001	2.01198E-005	0.00000E+000	5.36850E-001	1.10250E-004	9	...........
	396	7.94	5.40156E-001	2.06836E-005	0.00000E+000	5.40850E-001	1.14837E-004	9	...........
	400	8.02	5.44180E-001	2.23798E-005	0.00000E+000	5.44850E-001	1.12502E-004	9	...........
	404	8.1	5.48136E-001	2.14925E-005	0.00000E+000	5.48850E-001	1.16505E-004	9	...........
	408	8.18	5.52185E-001	2.21249E-005	0.00000E+000	5.52850E-001	1.14670E-004	9	...........
	412	8.26	5.56160E-001	2.29483E-005	0.00000E+000	5.56850E-001	1.15754E-004	9	...........
	416	8.34	5.60206E-001	2.32817E-005	0.00000E+000	5.60850E-001	1.12752E-004	9	...........
	420	8.42	5.64134E-001	2.46222E-005	0.00000E+000	5.64850E-001	1.22426E-004	9	...........
	424	8.5	5.68191E-001	2.39895E-005	0.00000E+000	5.68850E-001	1.20008E-004	9	...........
	428	8.58	5.72140E-001	2.41567E-005	0.00000E+000	5.72850E-001	1.18840E-004	9	...........
	432	8.66	5.76167E-001	2.48688E-005	0.00000E+000	5.76850E-001	1.13252E-004	9	...........
	436	8.74	5.80164E-001	2.57084E-005	0.00000E+000	5.80850E-001	1.14420E-004	9	...........
	440	8.82	5.84208E-001	2.57924E-005	0.00000E+000	5.84850E-001	1.16255E-004	9	...........
	444	8.9	5.88170E-001	2.62115E-005	0.00000E+000	5.88850E-001	1.17005E-004	9	...........
	448	8.98	5.92187E-001	2.65367E-005	0.00000E+000	5.92850E-001	1.16505E-004	9	...........
	452	9.06	5.96129E-001	2.69644E-005	0.00000E+000	5.96850E-001	1.19424E-004	9	...........
	456	9.14	6.00126E-001	2.77656E-005	0.00000E+000	6.00850E-001	1.15337E-004	9	...........
	460	9.22	6.04095E-001	2.81104E-005	0.00000E+000	6.04850E-001	1.12919E-004	9	...........
	464	9.3	6.08185E-001	2.85290E-005	0.00000E+000	6.08850E-001	1.16421E-004	9	...........
	468	9.38	6.12146E-001	2.87563E-005	0.00000E+000	6.12850E-001	1.18590E-004	9	...........
	472	9.46	6.16143E-001	2.92318E-005	0.00000E+000	6.16850E-001	1.15087E-004	9	...........
	476	9.54	6.20070E-001	3.00611E-005	0.00000E+000	6.20850E-001	1.20091E-004	9	...........
	480	9.62	6.24109E-001	3.00740E-005	0.00000E+000	6.24850E-001	1.15838E-004	9	...........
	484	9.7	6.28044E-001	3.06552E-005	0.00000E+000	6.28850E-001	1.16755E-004	9	...........
	488	9.78	6.32161E-001	3.08870E-005	0.00000E+000	6.32850E-001	1.20008E-004	9	...........
	492	9.86	6.36105E-001	3.21701E-005	0.00000E+000	6.36850E-001	1.12001E-004	9	...........
	496	9.94	6.40127E-001	3.19693E-005	0.00000E+000	6.40850E-001	1.17672E-004	9	...........
	500	10.02	6.44077E-001	3.24130E-005	0.00000E+000	6.44850E-001	1.19257E-004	9	...........
	504	10.1	6.48112E-001	3.29513E-005	0.00000E+000	6.48850E-001	1.24678E-004	9	...........
	508	10.18	6.52040E-001	3.33734E-005	0.00000E+000	6.52850E-001	1.22343E-004	9	...........
	512	10.26	6.56115E-001	3.37857E-005	0.00000E+000	6.56850E-001	1.21175E-004	9	...........
	516	10.34	6.60073E-001	3.36378E-005	0.00000E+000	6.60850E-001	1.13252E-004	9	...........
	520	10.42	6.64133E-001	3.49244E-005	0.00000E+000	6.64850E-001	1.15004E-004	9	...........
	524	10.5	6.68066E-001	3.50355E-005	0.00000E+000	6.68850E-001	1.12502E-004	9	...........
	528	10.58	6.72109E-001	3.55803E-005	0.00000E+000	6.72850E-001	1.17005E-004	9	...........
	532	10.66	6.76052E-001	3.61676E-005	0.00000E+000	6.76850E-001	1.11751E-004	9	...........
	536	10.74	6.80117E-001	3.65416E-005	0.00000E+000	6.80850E-001	1.16088E-004	9	...........
	540	10.82	6.84062E-001	3.70986E-005	0.00000E+000	6.84850E-001	1.20258E-004	9	...........
	544	10.9	6.88131E-001	3.75820E-005	0.00000E+000	6.88850E-001	1.09666E-004	9	...........
	548	10.98	6.91988E-001	3.88465E-005	0.00000E+000	6.92850E-001	1.10417E-004	9	...........
	552	11.06	6.96077E-001	3.83439E-005	0.00000E+000	6.96850E-001	1.08498E-004	9	...........
	556	11.14	7.00015E-001	3.84373E-005	0.00000E+000	7.00850E-001	1.15504E-004	9	...........
	560	11.22	7.04076E-001	3.94136E-005	0.00000E+000	7.04850E-001	1.18924E-004	9	...........
	564	11.3	7.07977E-001	3.98368E-005	0.00000E+000	7.08850E-001	1.13669E-004	9	...........
	568	11.38	7.12091E-001	4.18748E-005	0.00000E+000	7.12850E-001	1.07664E-004	9	...........
	572	11.46	7.16038E-001	4.11094E-005	0.00000E+000	7.16850E-001	1.13419E-004	9	...........
	576	11.54	7.20058E-001	4.18709E-005	0.00000E+000	7.20850E-001	1.10000E-004	9	...........
	580	11.62	7.23993E-001	4.22057E-005	0.00000E+000	7.24850E-001	1.16171E-004	9	...........
	584	11.7	7.28014E-001	4.28878E-005	0.00000E+000	7.28850E-001	1.13586E-004	9	...........
	588	11.78	7.31920E-001	4.32706E-005	0.00000E+000	7.32850E-001	1.10667E-004	9	...........
	592	11.86	7.36078E-001	4.40450E-005	0.00000E+000	7.36850E-001	1.12502E-004	9	...........
	596	11.94	7.40026E-001	4.44854E-005	0.00000E+000	7.40850E-001	1.13085E-004	9	...........
	600	12.02	7.44051E-001	4.51441E-005	0.00000E+000	7.44850E-001	1.16088E-004	9	...........
	604	12.1	7.47954E-001	4.67407E-005	0.00000E+000	7.48850E-001	1.09916E-004	9	...........
	608	12.18	7.52004E-001	4.60759E-005	0.00000E+000	7.52850E-001	1.10083E-004	9	...........
	612	12.26	7.55891E-001	4.65577E-005	0.00000E+000	7.56850E-001	1.11668E-004	9	...........
	616	12.34	7.60010E-001	4.70775E-005	0.00000E+000	7.60850E-001	1.11918E-004	9	...........
	620	12.42	7.63949E-001	4.79811E-005	0.00000E+000	7.64850E-001	1.13669E-004	9	...........
	624	12.5	7.68021E-001	4.85317E-005	0.00000E+000	7.68850E-001	1.11751E-004	9	...........
	628	12.58	7.71967E-001	4.91658E-005	0.00000E+000	7.72850E-001	1.11584E-004	9	...........
	632	12.66	7.76026E-001	4.98974E-005	0.00000E+000	7.76850E-001	1.11918E-004	9	...........
	636	12.74	7.79952E-001	5.04402E-005	0.00000E+000	7.80850E-001	1.15087E-004	9	...........
	640	12.82	7.84027E-001	4.96650E-005	0.00000E+000	7.84850E-001	1.02910E-004	9	...........
	644	12.9	7.87941E-001	5.13835E-005	0.00000E+000	7.88850E-001	1.11834E-004	9	...........
	648	12.98	7.92035E-001	5.68271E-005	0.00000E+000	7.92850E-001	1.11251E-004	9	...........
	652	13.06	7.95940E-001	5.36585E-005	0.00000E+000	7.96850E-001	1.14420E-004	9	...........
	656	13.14	7.97966E-001	5.04691E-005	0.00000E+000	7.98850E-001	1.00492E-004	9	...........
	660	13.22	7.93995E-001	4.40892E-005	0.00000E+000	7.94850E-001	9.94075E-005	9	...........
	664	13.3	7.90033E-001	3.95579E-005	0.00000E+000	7.90850E-001	1.02660E-004	9	...........
	668	13.38	7.86048E-001	3.53870E-005	0.00000E+000	7.86850E-001	1.02243E-004	9	...........
	672	13.46	7.82166E-001	3.17970E-005	0.00000E+000	7.82850E-001	1.00492E-004	9	...........
	676	13.54	7.78010E-001	2.86586E-005	0.00000E+000	7.78850E-001	1.05329E-004	9	...........
	680	13.62	7.73992E-001	2.62795E-005	0.00000E+000	7.74850E-001	1.09249E-004	9	...........
	684	13.7	7.70035E-001	2.38159E-005	0.00000E+000	7.70850E-001	1.05329E-004	9	...........
	688	13.78	7.66037E-001	2.17291E-005	0.00000E+000	7.66850E-001	9.97411E-005	9	...........
	692	13.86	7.62022E-001	1.96211E-005	0.00000E+000	7.62850E-001	1.10583E-004	9	...........
	696	13.94	7.58022E-001	1.84467E-005	0.00000E+000	7.58850E-001	1.01993E-004	9	...........
	700	14.02	7.53998E-001	1.65891E-005	0.00000E+000	7.54850E-001	1.07164E-004	9	...........
	704	14.1	7.50020E-001	1.54438E-005	0.00000E+000	7.50850E-001	1.09082E-004	9	...........
	708	14.18	7.46055E-001	1.43763E-005	0.00000E+000	7.46850E-001	1.14086E-004	9	...........
	712	14.26	7.42076E-001	1.33164E-005	0.00000E+000	7.42850E-001	1.11584E-004	9	...........
	716	14.34	7.38070E-001	1.32697E-005	0.00000E+000	7.38850E-001	1.16672E-004	9	...........
	720	14.42	7.34086E-001	1.12898E-005	0.00000E+000	7.34850E-001	1.13836E-004	9	...........
	724	14.5	7.29988E-001	1.05230E-005	0.00000E+000	7.30850E-001	1.09666E-004	9	...........
	728	14.58	7.26024E-001	9.32626E-006	0.00000E+000	7.26850E-001	1.03578E-004	9	...........
	732	14.66	7.22043E-001	9.04985E-006	0.00000E+000	7.22850E-001	1.05663E-004	9	...........
	736	14.74	7.18102E-001	8.37527E-006	0.00000E+000	7.18850E-001	1.10250E-004	9	...........
	740	14.82	7.14108E-001	7.97225E-006	0.00000E+000	7.14850E-001	1.06163E-004	9	...........
	744	14.9	7.10165E-001	7.27681E-006	0.00000E+000	7.10850E-001	1.07998E-004	9	...........
	748	14.98	7.06065E-001	6.83392E-006	0.00000E+000	7.06850E-001	1.08832E-004	9	...........
	752	15.06	7.02047E-001	6.95953E-006	0.00000E+000	7.02850E-001	1.08332E-004	9	...........
	756	15.14	6.98063E-001	6.05424E-006	0.00000E+000	6.98850E-001	1.10250E-004	9	...........
	760	15.22	6.94132E-001	5.62020E-006	0.00000E+000	6.94850E-001	1.06914E-004	9	...........
	764	15.3	6.90136E-001	5.20417E-006	0.00000E+000	6.90850E-001	1.08332E-004	9	...........
	768	15.38	6.86290E-001	4.71091E-006	0.00000E+000	6.86850E-001	1.09082E-004	9	...........
	772	15.46	6.82119E-001	4.55110E-006	0.00000E+000	6.82850E-001	1.10000E-004	9	...........
	776	15.54	6.78074E-001	4.16860E-006	0.00000E+000	6.78850E-001	1.08582E-004	9	...........
	780	15.62	6.74099E-001	3.95625E-006	0.00000E+000	6.74850E-001	1.11834E-004	9	...........
	784	15.7	6.70128E-001	3.64098E-006	0.00000E+000	6.70850E-001	1.07080E-004	9	...........
	788	15.78	6.66112E-001	3.40310E-006	0.00000E+000	6.66850E-001	1.11251E-004	9	...........
	792	15.86	6.62178E-001	3.45565E-006	0.00000E+000	6.62850E-001	1.09332E-004	9	...........
	796	15.94	6.58124E-001	2.97023E-006	0.00000E+000	6.58850E-001	1.07164E-004	9	...........
	800	16.02	6.54293E-001	2.79991E-006	0.00000E+000	6.54850E-001	1.11751E-004	9	...........
	804	16.1	6.50094E-001	2.49932E-006	0.00000E+000	6.50850E-001	1.03494E-004	9	...........
	808	16.18	6.46130E-001	2.91902E-006	0.00000E+000	6.46850E-001	1.06747E-004	9	...........
	812	16.26	6.42130E-001	2.09630E-006	0.00000E+000	6.42850E-001	1.12251E-004	9	...........
	816	16.34	6.38254E-001	1.76351E-006	0.00000E+000	6.38850E-001	1.09833E-004	9	...........
	820	16.42	6.34141E-001	1.75634E-006	0.00000E+000	6.34850E-001	1.10917E-004	9	...........
	824	16.5	6.30271E-001	1.49511E-006	0.00000E+000	6.30850E-001	1.10667E-004	9	...........
	828	16.58	6.26098E-001	2.32150E-006	0.00000E+000	6.26850E-001	1.05913E-004	9	...........
	832	16.66	6.22159E-001	1.26875E-006	0.00000E+000	6.22850E-001	1.15504E-004	9	...........
	836	16.74	6.18144E-001	1.13930E-006	0.00000E+000	6.18850E-001	1.09583E-004	9	...........
	840	16.82	6.14294E-001	1.04255E-006	0.00000E+000	6.14850E-001	1.13002E-004	9	...........
	844	16.9	6.10180E-001	1.01786E-006	0.00000E+000	6.10850E-001	1.13669E-004	9	...........
	848	16.98	6.06207E-001	2.38181E-007	0.00000E+000	6.06850E-001	1.09833E-004	9	...........
	852	17.06	6.02111E-001	4.70050E-007	0.00000E+000	6.02850E-001	1.12752E-004	9	...........
	856	17.14	5.98209E-001	4.78557E-007	0.00000E+000	5.98850E-001	1.17923E-004	9	...........
	860	17.22	5.94155E-001	3.07075E-007	0.00000E+000	5.94850E-001	1.11417E-004	9	...........
	864	17.3	5.90323E-001	1.22070E-006	0.00000E+000	5.90850E-001	1.12502E-004	9	...........
	868	17.38	5.86194E-001	-2.37132E-008	0.00000E+000	5.86850E-001	1.13419E-004	9	...........
	872	17.46	5.82337E-001	5.41880E-008	0.00000E+000	5.82850E-001	1.18840E-004	9	...........
	876	17.54	5.78182E-001	-3.25542E-008	0.00000E+000	5.78850E-001	1.16588E-004	9	...........
	880	17.62	5.74196E-001	-1.76179E-007	0.00000E+000	5.74850E-001	1.18089E-004	9	...........
	884	17.7	5.70148E-001	6.99416E-007	0.00000E+000	5.70850E-001	1.09833E-004	9	...........
	888	17.78	5.66316E-001	-2.44072E-007	0.00000E+000	5.66850E-001	1.16088E-004	9	...........
	892	17.86	5.62194E-001	-3.95704E-007	0.00000E+000	5.62850E-001	1.13502E-004	9	...........
	896	17.94	5.58361E-001	-4.52920E-007	0.00000E+000	5.58850E-001	1.09666E-004	9	...........
	900	18.02	5.54184E-001	-6.28239E-007	0.00000E+000	5.54850E-001	1.15504E-004	9	...........
	904	18.1	5.50190E-001	-1.34103E-006	0.00000E+000	5.50850E-001	1.12752E-004	9	...........
	908	18.18	5.46167E-001	-6.20066E-007	0.00000E+000	5.46850E-001	1.12085E-004	9	...........
	912	18.26	5.42316E-001	-5.30488E-007	0.00000E+000	5.42850E-001	1.12251E-004	9	...........
	916	18.34	5.38189E-001	-9.48018E-007	0.00000E+000	5.38850E-001	1.17839E-004	9	...........
	920	18.42	5.34360E-001	-2.05705E-007	0.00000E+000	5.34850E-001	1.13919E-004	9	...........
	924	18.5	5.30205E-001	-1.21492E-006	0.00000E+000	5.30850E-001	1.13419E-004	9	...........
	928	18.58	5.26378E-001	-1.19874E-006	0.00000E+000	5.26850E-001	1.15254E-004	9	...........
	932	18.66	5.22185E-001	-1.37205E-006	0.00000E+000	5.22850E-001	1.16672E-004	9	...........
	936	18.74	5.18294E-001	-1.41009E-006	0.00000E+000	5.18850E-001	1.11000E-004	9	...........
	940	18.82	5.14187E-001	-7.47510E-007	0.00000E+000	5.14850E-001	1.13836E-004	9	...........
	944	18.9	5.10357E-001	-1.63879E-006	0.00000E+000	5.10850E-001	1.22260E-004	9	...........
	948	18.98	5.06190E-001	-1.67965E-006	0.00000E+000	5.06850E-001	1.14503E-004	9	...........
	952	19.06	5.02335E-001	-1.84280E-006	0.00000E+000	5.02850E-001	1.22677E-004	9	...........
	956	19.14	4.98197E-001	-1.90835E-006	0.00000E+000	4.98850E-001	1.16755E-004	9	...........
	960	19.22	4.94320E-001	-2.93975E-006	0.00000E+000	4.94850E-001	1.13002E-004	9	...........
	964	19.3	4.90212E-001	-1.91836E-006	0.00000E+000	4.90850E-001	1.14003E-004	9	...........
	968	19.38	4.86378E-001	-2.07266E-006	0.00000E+000	4.86850E-001	1.18173E-004	9	...........
	972	19.46	4.82221E-001	-2.04481E-006	0.00000E+000	4.82850E-001	1.14336E-004	9	...........
	976	19.54	4.78348E-001	-1.57740E-006	0.00000E+000	4.78850E-001	1.14086E-004	9	...........
	980	19.62	4.74178E-001	-2.20878E-006	0.00000E+000	4.74850E-001	1.20258E-004	9	...........
	984	19.7	4.70320E-001	-2.75192E-006	0.00000E+000	4.70850E-001	1.16505E-004	9	...........
	988	19.78	4.66230E-001	-2.37409E-006	0.00000E+000	4.66850E-001	1.14420E-004	9	...........
	992	19.86	4.62382E-001	-2.59612E-006	0.00000E+000	4.62850E-001	1.14253E-004	9	...........
	996	19.94	4.58227E-001	-2.40529E-006	0.00000E+000	4.58850E-001	1.16421E-004	9	...........
	1000	20.02	4.54377E-001	-2.90606E-006	0.00000E+000	4.54850E-001	1.15170E-004	9	...........
	1004	20.1	4.50206E-001	-2.82966E-006	0.00000E+000	4.50850E-001	1.15087E-004	9	...........
	1008	20.18	4.46311E-001	-2.80563E-006	0.00000E+000	4.46850E-001	1.13753E-004	9	...........
	1012	20.26	4.42227E-001	-2.91690E-006	0.00000E+000	4.42850E-001	1.17839E-004	9	...........
	1016	20.34	4.38382E-001	-4.04621E-006	0.00000E+000	4.38850E-001	1.15754E-004	9	...........
	1020	20.42	4.34244E-001	-3.20281E-006	0.00000E+000	4.34850E-001	1.12835E-004	9	...........
	1024	20.5	4.30403E-001	-3.28522E-006	0.00000E+000	4.30850E-001	1.19507E-004	9	...........
	1028	20.58	4.26226E-001	-3.97549E-006	0.00000E+000	4.26850E-001	1.11834E-004	9	...........
	1032	20.66	4.22297E-001	-2.19627E-006	0.00000E+000	4.22850E-001	1.11834E-004	9	...........
	1036	20.74	4.18252E-001	-3.65271E-006	0.00000E+000	4.18850E-001	1.15087E-004	9	...........
	1040	20.82	4.14362E-001	-3.35878E-006	0.00000E+000	4.14850E-001	1.12919E-004	9	...........
	1044	20.9	4.10219E-001	-3.81234E-006	0.00000E+000	4.10850E-001	1.16505E-004	9	...........
	1048	20.98	4.06392E-001	-3.87123E-006	0.00000E+000	4.06850E-001	1.16255E-004	9	...........
	1052	21.06	4.02241E-001	-3.33843E-006	0.00000E+000	4.02850E-001	1.13002E-004	9	...........
	1056	21.14	3.98373E-001	-3.84688E-006	0.00000E+000	3.98850E-001	1.06413E-004	9	...........
	1060	21.22	3.94324E-001	-4.13463E-006	0.00000E+000	3.94850E-001	1.15004E-004	9	...........
	1064	21.3	3.90381E-001	-4.09426E-006	0.00000E+000	3.90850E-001	1.10917E-004	9	...........
	1068	21.38	3.86274E-001	-4.24239E-006	0.00000E+000	3.86850E-001	1.14170E-004	9	...........
	1072	21.46	3.82396E-001	-5.60107E-006	0.00000E+000	3.82850E-001	1.17255E-004	9	...........
	1076	21.54	3.78284E-001	-4.33363E-006	0.00000E+000	3.78850E-001	1.14503E-004	9	...........
	1080	21.62	3.74402E-001	-4.60987E-006	0.00000E+000	3.74850E-001	1.11167E-004	9	...........
	1084	21.7	3.70323E-001	-4.71680E-006	0.00000E+000	3.70850E-001	1.16171E-004	9	...........
	1088	21.78	3.66377E-001	-4.00318E-006	0.00000E+000	3.66850E-001	1.16588E-004	9	...........
	1092	21.86	3.62306E-001	-4.89979E-006	0.00000E+000	3.62850E-001	1.18590E-004	9	...........
	1096	21.94	3.58403E-001	-4.74182E-006	0.00000E+000	3.58850E-001	1.21843E-004	9	...........
	1100	22.02	3.54293E-001	-4.91797E-006	0.00000E+000	3.54850E-001	1.18924E-004	9	...........
	1104	22.1	3.50381E-001	-5.21957E-006	0.00000E+000	3.50850E-001	1.14920E-004	9	...........
	1108	22.18	3.46247E-001	-6.02260E-006	0.00000E+000	3.46850E-001	1.13336E-004	9	...........
	1112	22.26	3.42372E-001	-5.68080E-006	0.00000E+000	3.42850E-001	1.16088E-004	9	...........
	1116	22.34	3.38331E-001	-5.64778E-006	0.00000E+000	3.38850E-001	1.17339E-004	9	...........
	1120	22.42	3.34411E-001	-5.64644E-006	0.00000E+000	3.34850E-001	1.21509E-004	9	...........
	1124	22.5	3.30334E-001	-5.28313E-006	0.00000E+000	3.30850E-001	1.11251E-004	9	...........
	1128	22.58	3.26424E-001	-7.13173E-006	0.00000E+000	3.26850E-001	1.15337E-004	9	...........
	1132	22.66	3.22265E-001	-6.00976E-006	0.00000E+000	3.22850E-001	1.19007E-004	9	...........
	1136	22.74	3.18388E-001	-5.82727E-006	0.00000E+000	3.18850E-001	1.24178E-004	9	...........
	1140	22.82	3.14344E-001	-5.81826E-006	0.00000E+000	3.14850E-001	1.23844E-004	9	...........
	1144	22.9	3.10410E-001	-5.36653E-006	0.00000E+000	3.10850E-001	1.15421E-004	9	...........
	1148	22.98	3.06375E-001	-6.42428E-006	0.00000E+000	3.06850E-001	1.16421E-004	9	...........
	1152	23.06	3.02437E-001	-6.63197E-006	0.00000E+000	3.02850E-001	1.10583E-004	9	...........
	1156	23.14	2.98306E-001	-7.05283E-006	0.00000E+000	2.98850E-001	1.11251E-004	9	...........
	1160	23.22	2.94418E-001	-7.28103E-006	0.00000E+000	2.94850E-001	1.17339E-004	9	...........
	1164	23.3	2.90363E-001	-7.32724E-006	0.00000E+000	2.90850E-001	1.13502E-004	9	...........
	1168	23.38	2.86429E-001	-6.56107E-006	0.00000E+000	2.86850E-001	1.14336E-004	9	...........
	1172	23.46	2.82353E-001	-7.16293E-006	0.00000E+000	2.82850E-001	1.14336E-004	9	...........
	1176	23.54	2.78463E-001	-7.40798E-006	0.00000E+000	2.78850E-001	1.17422E-004	9	...........
	1180	23.62	2.74358E-001	-7.37344E-006	0.00000E+000	2.74850E-001	1.10250E-004	9	...........
	1184	23.7	2.70456E-001	-7.59113E-006	0.00000E+000	2.70850E-001	1.15170E-004	9	...........
	1188	23.78	2.66413E-001	-8.03402E-006	0.00000E+000	2.66850E-001	1.14420E-004	9	...........
	1192	23.86	2.62468E-001	-7.76128E-006	0.00000E+000	2.62850E-001	1.17756E-004	9	...........
	1196	23.94	2.58395E-001	-7.87121E-006	0.00000E+000	2.58850E-001	1.17839E-004	9	...........
	1200	24.02	2.54467E-001	-7.59164E-006	0.00000E+000	2.54850E-001	1.17923E-004	9	...........
	1204	24.1	2.50389E-001	-8.40067E-006	0.00000E+000	2.50850E-001	1.12585E-004	9	...........
	1208	24.18	2.46466E-001	-8.51177E-006	0.00000E+000	2.46850E-001	1.14587E-004	9	...........
	1212	24.26	2.42401E-001	-8.48808E-006	0.00000E+000	2.42850E-001	1.17589E-004	9	...........
	1216	24.34	2.38459E-001	-9.02705E-006	0.00000E+000	2.38850E-001	1.14003E-004	9	...........
	1220	24.42	2.34412E-001	-9.39254E-006	0.00000E+000	2.34850E-001	1.15754E-004	9	...........
	1224	24.5	2.30475E-001	-9.03823E-006	0.00000E+000	2.30850E-001	1.19591E-004	9	...........
	1228	24.58	2.26455E-001	-9.05791E-006	0.00000E+000	2.26850E-001	1.17506E-004	9	...........
	1232	24.66	2.22506E-001	-9.60489E-006	0.00000E+000	2.22850E-001	1.16922E-004	9	...........
	1236	24.74	2.18352E-001	-9.52799E-006	0.00000E+000	2.18850E-001	1.15921E-004	9	...........
	1240	24.82	2.14466E-001	-1.00793E-005	0.00000E+000	2.14850E-001	1.18089E-004	9	...........
	1244	24.9	2.10428E-001	-1.01494E-005	0.00000E+000	2.10850E-001	1.14837E-004	9	...........
	1248	24.98	2.06503E-001	-1.04828E-005	0.00000E+000	2.06850E-001	1.20341E-004	9	...........
	1252	25.06	2.02491E-001	-1.04550E-005	0.00000E+000	2.02850E-001	1.12085E-004	9	...........
	1256	25.14	1.98522E-001	-9.50930E-006	0.00000E+000	1.98850E-001	1.15671E-004	9	...........
	1260	25.22	1.94439E-001	-1.12125E-005	0.00000E+000	1.94850E-001	1.18590E-004	9	...........
	1264	25.3	1.90507E-001	-1.11766E-005	0.00000E+000	1.90850E-001	1.18840E-004	9	...........
	1268	25.38	1.86499E-001	-1.14248E-005	0.00000E+000	1.86850E-001	1.16338E-004	9	...........
	1272	25.46	1.82538E-001	-1.13010E-005	0.00000E+000	1.82850E-001	1.19507E-004	9	...........
	1276	25.54	1.78527E-001	-1.20180E-005	0.00000E+000	1.78850E-001	1.13502E-004	9	...........
	1280	25.62	1.74568E-001	-1.21529E-005	0.00000E+000	1.74850E-001	1.10750E-004	9	...........
	1284	25.7	1.70514E-001	-1.28132E-005	0.00000E+000	1.70850E-001	1.09082E-004	9	...........
	1288	25.78	1.66528E-001	-1.27108E-005	0.00000E+000	1.66850E-001	1.12502E-004	9	...........
	1292	25.86	1.62499E-001	-1.19933E-005	0.00000E+000	1.62850E-001	1.18089E-004	9	...........
	1296	25.94	1.58550E-001	-1.32732E-005	0.00000E+000	1.58850E-001	1.10500E-004	9	...........
	1300	26.02	1.54497E-001	-1.33565E-005	0.00000E+000	1.54850E-001	1.19758E-004	9	...........
	1304	26.1	1.50567E-001	-1.38508E-005	0.00000E+000	1.50850E-001	1.12168E-004	9	...........
	1308	26.18	1.46508E-001	-1.39623E-005	0.00000E+000	1.46850E-001	1.15337E-004	9	...........
	1312	26.26	1.42543E-001	-1.37542E-005	0.00000E+000	1.42850E-001	1.19257E-004	9	...........
	1316	26.34	1.38509E-001	-1.43362E-005	0.00000E+000	1.38850E-001	1.18506E-004	9	...........
	1320	26.42	1.34554E-001	-1.47779E-005	0.00000E+000	1.34850E-001	1.17005E-004	9	...........
	1324	26.5	1.30517E-001	-1.52098E-005	0.00000E+000	1.30850E-001	1.13586E-004	9	...........
	1328	26.58	1.26590E-001	-1.57017E-005	0.00000E+000	1.26850E-001	1.15337E-004	9	...........
	1332	26.66	1.22558E-001	-1.68659E-005	0.00000E+000	1.22850E-001	1.15504E-004	9	...........
	1336	26.74	1.18585E-001	-1.63362E-005	0.00000E+000	1.18850E-001	1.21509E-004	9	...........
	1340	26.82	1.14532E-001	-1.66579E-005	0.00000E+000	1.14850E-001	1.25762E-004	9	...........
	1344	26.9	1.10557E-001	-1.69968E-005	0.00000E+000	1.10850E-001	1.13085E-004	9	...........
	1348	26.98	1.06532E-001	-1.65796E-005	0.00000E+000	1.06850E-001	1.24678E-004	9	...........
	1352	27.06	1.02576E-001	-1.76779E-005	0.00000E+000	1.02850E-001	1.13753E-004	9	...........
	1356	27.14	9.85698E-002	-1.80658E-005	0.00000E+000	9.88500E-002	1.20842E-004	9	...........
	1360	27.22	9.46096E-002	-1.82671E-005	0.00000E+000	9.48500E-002	1.12001E-004	9	...........
	1364	27.3	9.05486E-002	-1.89397E-005	0.00000E+000	9.08500E-002	1.11668E-004	9	...........
	1368	27.38	8.65776E-002	-1.98330E-005	0.00000E+000	8.68500E-002	1.13586E-004	9	...........
	1372	27.46	8.25651E-002	-1.99736E-005	0.00000E+000	8.28500E-002	1.15170E-004	9	...........
	1376	27.54	7.86236E-002	-2.05918E-005	0.00000E+000	7.88500E-002	1.23010E-004	9	...........
	1380	27.62	7.46038E-002	-2.07231E-005	0.00000E+000	7.48500E-002	1.14753E-004	9	...........
	1384	27.7	7.06325E-002	-2.13519E-005	0.00000E+000	7.08500E-002	1.17923E-004	9	...........
	1388	27.78	6.65740E-002	-2.26032E-005	0.00000E+000	6.68500E-002	1.12668E-004	9	...........
	1392	27.86	6.25988E-002	-2.22135E-005	0.00000E+000	6.28500E-002	1.12001E-004	9	...........
	1396	27.94	5.86125E-002	-2.24381E-005	0.00000E+000	5.88500E-002	1.19090E-004	9	...........
	1400	28.02	5.46301E-002	-2.31575E-005	0.00000E+000	5.48500E-002	1.11834E-004	9	...........
	1404	28.1	5.06060E-002	-2.19380E-005	0.00000E+000	5.08500E-002	1.17839E-004	9	...........
	1408	28.18	4.66410E-002	-2.41219E-005	0.00000E+000	4.68500E-002	1.17756E-004	9	...........
	1412	28.26	4.25939E-002	-2.43666E-005	0.00000E+000	4.28500E-002	1.14420E-004	9	...........
	1416	28.34	3.86046E-002	-2.52959E-005	0.00000E+000	3.88500E-002	1.18340E-004	9	...........
	1420	28.42	3.45932E-002	-2.54111E-005	0.00000E+000	3.48500E-002	1.15504E-004	9	...........
	1424	28.5	3.06238E-002	-2.48028E-005	0.00000E+000	3.08500E-002	1.12001E-004	9	...........
	1428	28.58	2.65990E-002	-2.63244E-005	0.00000E+000	2.68500E-002	1.15921E-004	9	...........
	1432	28.66	2.26863E-002	-2.68834E-005	0.00000E+000	2.28500E-002	1.06163E-004	9	...........
	1436	28.74	1.86337E-002	-2.72144E-005	0.00000E+000	1.88500E-002	1.13336E-004	9	...........
	1440	28.82	1.46559E-002	-2.75058E-005	0.00000E+000	1.48500E-002	1.08749E-004	9	...........
	1444	28.9	1.05924E-002	-2.81354E-005	0.00000E+000	1.08500E-002	1.11918E-004	9	...........
	1448	28.98	6.61654E-003	-2.83294E-005	0.00000E+000	6.85000E-003	1.19758E-004	9	...........
	1452	29.06	2.61035E-003	-2.89245E-005	0.00000E+000	2.85000E-003	1.14503E-004	9	...........
	1456	29.14	-1.28709E-003	-2.94987E-005	0.00000E+000	-1.15000E-003	1.08999E-004	9	...........
	1460	29.22	-5.28945E-003	-2.88403E-005	0.00000E+000	-5.15000E-003	1.09583E-004	9	...........
	1464	29.3	-9.29014E-003	-3.04819E-005	0.00000E+000	-9.15000E-003	1.04161E-004	9	...........
	1468	29.38	-1.32978E-002	-3.08409E-005	0.00000E+000	-1.31500E-002	1.00575E-004	9	...........
	1472	29.46	-1.72920E-002	-3.11385E-005	0.00000E+000	-1.71500E-002	1.08332E-004	9	...........
	1476	29.54	-2.12985E-002	-3.16841E-005	0.00000E+000	-2.11500E-002	1.12835E-004	9	...........
	1480	29.62	-2.52976E-002	-3.11423E-005	0.00000E+000	-2.51500E-002	1.07331E-004	9	...........
	1484	29.7	-2.92728E-002	-3.24279E-005	0.00000E+000	-2.91500E-002	1.07915E-004	9	...........
	1488	29.78	-3.32493E-002	-3.28510E-005	0.00000E+000	-3.31500E-002	1.09416E-004	9	...........
	1492	29.86	-3.72724E-002	-3.33494E-005	0.00000E+000	-3.71500E-002	1.18256E-004	9	...........
	1496	29.94	-4.12722E-002	-3.39955E-005	0.00000E+000	-4.11500E-002	1.07915E-004	9	...........
	1500	30.02	-4.52734E-002	-3.58592E-005	0.00000E+000	-4.51500E-002	1.13169E-004	9	...........
	1504	30.1	-4.92553E-002	-3.53318E-005	0.00000E+000	-4.91500E-002	1.05496E-004	9	...........
	1508	30.18	-5.32589E-002	-3.58676E-005	0.00000E+000	-5.31500E-002	1.05746E-004	9	...........
	1512	30.26	-5.72657E-002	-3.57198E-005	0.00000E+000	-5.71500E-002	1.10834E-004	9	...........
	1516	30.34	-6.12958E-002	-3.52571E-005	0.00000E+000	-6.11500E-002	1.09749E-004	9	...........
	1520	30.42	-6.52710E-002	-3.72465E-005	0.00000E+000	-6.51500E-002	1.10333E-004	9	...........
	1524	30.5	-6.92740E-002	-3.78915E-005	0.00000E+000	-6.91500E-002	1.10417E-004	9	...........
	1528	30.58	-7.32536E-002	-3.82874E-005	0.00000E+000	-7.31500E-002	1.12835E-004	9	...........
	1532	30.66	-7.72406E-002	-3.88495E-005	0.00000E+000	-7.71500E-002	1.11834E-004	9	...........
	1536	30.74	-8.12304E-002	-3.98297E-005	0.00000E+000	-8.11500E-002	1.17839E-004	9	...........
	1540	30.82	-8.52434E-002	-4.02080E-005	0.00000E+000	-8.51500E-002	1.16755E-004	9	...........
	1544	30.9	-8.92555E-002	-4.08116E-005	0.00000E+000	-8.91500E-002	1.15921E-004	9	...........
	1548	30.98	-9.32577E-002	-4.15774E-005	0.00000E+000	-9.31500E-002	1.17672E-004	9	...........
	1552	31.06	-9.72463E-002	-4.22628E-005	0.00000E+000	-9.71500E-002	1.05579E-004	9	...........
	1556	31.14	-1.01258E-001	-4.25843E-005	0.00000E+000	-1.01150E-001	1.09916E-004	9	...........
	1560	31.22	-1.05213E-001	-4.33321E-005	0.00000E+000	-1.05150E-001	1.11918E-004	9	...........
	1564	31.3	-1.09208E-001	-4.39500E-005	0.00000E+000	-1.09150E-001	1.12251E-004	9	...........
	1568	31.38	-1.13232E-001	-4.43320E-005	0.00000E+000	-1.13150E-001	1.16838E-004	9	...........
	1572	31.46	-1.17236E-001	-4.42167E-005	0.00000E+000	-1.17150E-001	1.18173E-004	9	...........
	1576	31.54	-1.21234E-001	-4.54396E-005	0.00000E+000	-1.21150E-001	1.09499E-004	9	...........
	1580	31.62	-1.25220E-001	-4.59037E-005	0.00000E+000	-1.25150E-001	1.07164E-004	9	...........
	1584	31.7	-1.29189E-001	-4.63372E-005	0.00000E+000	-1.29150E-001	1.15838E-004	9	...........
	1588	31.78	-1.33133E-001	-4.70211E-005	0.00000E+000	-1.33150E-001	1.13169E-004	9	...........
	1592	31.86	-1.37194E-001	-4.78093E-005	0.00000E+000	-1.37150E-001	1.04995E-004	9	...........
	1596	31.94	-1.41210E-001	-4.80680E-005	0.00000E+000	-1.41150E-001	1.10917E-004	9	...........
	1600	32.02	-1.45197E-001	-4.83188E-005	0.00000E+000	-1.45150E-001	1.02660E-004	9	...........
	1604	32.1	-1.49208E-001	-4.89101E-005	0.00000E+000	-1.49150E-001	1.11334E-004	9	...........
[...]
	13582	271.66	-2.72924E-001	-1.75810E-005	0.00000E+000	-2.73000E-001	1.13336E-004	9	...........
	13584	271.7	-2.70938E-001	-1.80374E-005	0.00000E+000	-2.71000E-001	1.10417E-004	9	...........
	13586	271.74	-2.68874E-001	-1.75126E-005	0.00000E+000	-2.69000E-001	1.19257E-004	9	...........
	13588	271.78	-2.66930E-001	-1.75325E-005	0.00000E+000	-2.67000E-001	1.16838E-004	9	...........
	13590	271.82	-2.64964E-001	-1.76461E-005	0.00000E+000	-2.65000E-001	1.15504E-004	9	...........
	13592	271.86	-2.62944E-001	-1.74289E-005	0.00000E+000	-2.63000E-001	1.17923E-004	9	...........
	13594	271.9	-2.60802E-001	-1.66926E-005	0.00000E+000	-2.61000E-001	1.12668E-004	9	...........
	13596	271.94	-2.58891E-001	-1.85475E-005	0.00000E+000	-2.59000E-001	1.14170E-004	9	...........
	13598	271.98	-2.56932E-001	-1.97394E-005	0.00000E+000	-2.57000E-001	1.12001E-004	9	...........
	13600	272.02	-2.54947E-001	-1.74108E-005	0.00000E+000	-2.55000E-001	1.13336E-004	9	...........
	13602	272.06	-2.52831E-001	-1.75234E-005	0.00000E+000	-2.53000E-001	1.17756E-004	9	...........
	13604	272.1	-2.50913E-001	-1.71810E-005	0.00000E+000	-2.51000E-001	1.13252E-004	9	...........
	13606	272.14	-2.48920E-001	-1.70789E-005	0.00000E+000	-2.49000E-001	1.24511E-004	9	...........
	13608	272.18	-2.46942E-001	-1.72956E-005	0.00000E+000	-2.47000E-001	1.12418E-004	9	...........
	13610	272.22	-2.44913E-001	-1.72184E-005	0.00000E+000	-2.45000E-001	1.10333E-004	9	...........
	13612	272.26	-2.42966E-001	-1.75747E-005	0.00000E+000	-2.43000E-001	1.09749E-004	9	...........
	13614	272.3	-2.40975E-001	-1.54612E-005	0.00000E+000	-2.41000E-001	1.08332E-004	9	...........
	13616	272.34	-2.38940E-001	-1.55954E-005	0.00000E+000	-2.39000E-001	1.08665E-004	9	...........
	13618	272.38	-2.36808E-001	-1.71997E-005	0.00000E+000	-2.37000E-001	1.11084E-004	9	...........
	13620	272.42	-2.34884E-001	-1.73782E-005	0.00000E+000	-2.35000E-001	1.07581E-004	9	...........
	13622	272.46	-2.32939E-001	-1.68489E-005	0.00000E+000	-2.33000E-001	1.07497E-004	9	...........
	13624	272.5	-2.30914E-001	-1.69922E-005	0.00000E+000	-2.31000E-001	1.08081E-004	9	...........
	13626	272.54	-2.28828E-001	-1.70787E-005	0.00000E+000	-2.29000E-001	1.14003E-004	9	...........
	13628	272.58	-2.26929E-001	-1.68741E-005	0.00000E+000	-2.27000E-001	1.12668E-004	9	...........
	13630	272.62	-2.24957E-001	-1.76778E-005	0.00000E+000	-2.25000E-001	1.13836E-004	9	...........
	13632	272.66	-2.22962E-001	-1.67126E-005	0.00000E+000	-2.23000E-001	1.12335E-004	9	...........
	13634	272.7	-2.20918E-001	-1.79785E-005	0.00000E+000	-2.21000E-001	1.08665E-004	9	...........
	13636	272.74	-2.18960E-001	-1.62418E-005	0.00000E+000	-2.19000E-001	1.10583E-004	9	...........
	13638	272.78	-2.16998E-001	-1.67224E-005	0.00000E+000	-2.17000E-001	1.08332E-004	9	...........
	13640	272.82	-2.14998E-001	-1.69286E-005	0.00000E+000	-2.15000E-001	1.09583E-004	9	...........
	13642	272.86	-2.12910E-001	-1.67651E-005	0.00000E+000	-2.13000E-001	1.14336E-004	9	...........
	13644	272.9	-2.10920E-001	-1.61040E-005	0.00000E+000	-2.11000E-001	1.03744E-004	9	...........
	13646	272.94	-2.08965E-001	-1.70299E-005	0.00000E+000	-2.09000E-001	1.06997E-004	9	...........
	13648	272.98	-2.06958E-001	-1.68190E-005	0.00000E+000	-2.07000E-001	1.07998E-004	9	...........
	13650	273.02	-2.04834E-001	-1.64550E-005	0.00000E+000	-2.05000E-001	1.06663E-004	9	...........
	13652	273.06	-2.02969E-001	-1.77785E-005	0.00000E+000	-2.03000E-001	1.11584E-004	9	...........
	13654	273.1	-2.00991E-001	-1.83171E-005	0.00000E+000	-2.01000E-001	1.08832E-004	9	...........
	13656	273.14	-1.99014E-001	-1.63443E-005	0.00000E+000	-1.99000E-001	1.17005E-004	9	...........
	13658	273.18	-1.96930E-001	-1.60598E-005	0.00000E+000	-1.97000E-001	1.09666E-004	9	...........
	13660	273.22	-1.94991E-001	-1.62010E-005	0.00000E+000	-1.95000E-001	1.08749E-004	9	...........
	13662	273.26	-1.92982E-001	-1.63508E-005	0.00000E+000	-1.93000E-001	1.10500E-004	9	...........
	13664	273.3	-1.91035E-001	-1.66594E-005	0.00000E+000	-1.91000E-001	1.18423E-004	9	...........
	13666	273.34	-1.88831E-001	-1.63256E-005	0.00000E+000	-1.89000E-001	1.12502E-004	9	...........
	13668	273.38	-1.86953E-001	-1.63611E-005	0.00000E+000	-1.87000E-001	1.12585E-004	9	...........
	13670	273.42	-1.84996E-001	-1.62667E-005	0.00000E+000	-1.85000E-001	1.08248E-004	9	...........
	13672	273.46	-1.82993E-001	-1.68442E-005	0.00000E+000	-1.83000E-001	1.13002E-004	9	...........
	13674	273.5	-1.80841E-001	-1.60458E-005	0.00000E+000	-1.81000E-001	1.06080E-004	9	...........
	13676	273.54	-1.78979E-001	-1.61196E-005	0.00000E+000	-1.79000E-001	1.15087E-004	9	...........
	13678	273.58	-1.76998E-001	-1.59351E-005	0.00000E+000	-1.77000E-001	1.12251E-004	9	...........
	13680	273.62	-1.75016E-001	-1.54588E-005	0.00000E+000	-1.75000E-001	1.14837E-004	9	...........
	13682	273.66	-1.72921E-001	-1.61563E-005	0.00000E+000	-1.73000E-001	1.06830E-004	9	...........
	13684	273.7	-1.71003E-001	-1.63171E-005	0.00000E+000	-1.71000E-001	1.12251E-004	9	...........
	13686	273.74	-1.69019E-001	-1.60560E-005	0.00000E+000	-1.69000E-001	1.06330E-004	9	...........
	13688	273.78	-1.67043E-001	-1.51437E-005	0.00000E+000	-1.67000E-001	1.12752E-004	9	...........
	13690	273.82	-1.64894E-001	-1.75677E-005	0.00000E+000	-1.65000E-001	1.11084E-004	9	...........
	13692	273.86	-1.62985E-001	-1.57878E-005	0.00000E+000	-1.63000E-001	1.16421E-004	9	...........
	13694	273.9	-1.61000E-001	-1.58864E-005	0.00000E+000	-1.61000E-001	1.15170E-004	9	...........
	13696	273.94	-1.59002E-001	-1.56428E-005	0.00000E+000	-1.59000E-001	1.16338E-004	9	...........
	13698	273.98	-1.56854E-001	-1.53889E-005	0.00000E+000	-1.57000E-001	1.14086E-004	9	...........
	13700	274.02	-1.54971E-001	-1.61960E-005	0.00000E+000	-1.55000E-001	1.18590E-004	9	...........
	13702	274.06	-1.53010E-001	-1.56897E-005	0.00000E+000	-1.53000E-001	1.10834E-004	9	...........
	13704	274.1	-1.51034E-001	-1.55841E-005	0.00000E+000	-1.51000E-001	1.16255E-004	9	...........
	13706	274.14	-1.48939E-001	-1.41298E-005	0.00000E+000	-1.49000E-001	1.13085E-004	9	...........
	13708	274.18	-1.47009E-001	-1.37832E-005	0.00000E+000	-1.47000E-001	1.14753E-004	9	...........
	13710	274.22	-1.45022E-001	-1.57356E-005	0.00000E+000	-1.45000E-001	1.14670E-004	9	...........
	13712	274.26	-1.43043E-001	-1.57841E-005	0.00000E+000	-1.43000E-001	1.19507E-004	9	...........
	13714	274.3	-1.41004E-001	-1.55029E-005	0.00000E+000	-1.41000E-001	1.09249E-004	9	...........
	13716	274.34	-1.39000E-001	-1.53205E-005	0.00000E+000	-1.39000E-001	1.16838E-004	9	...........
	13718	274.38	-1.36997E-001	-1.57966E-005	0.00000E+000	-1.37000E-001	1.12835E-004	9	...........
	13720	274.42	-1.35024E-001	-1.51732E-005	0.00000E+000	-1.35000E-001	1.16255E-004	9	...........
	13722	274.46	-1.32827E-001	-1.52103E-005	0.00000E+000	-1.33000E-001	1.12585E-004	9	...........
	13724	274.5	-1.30964E-001	-1.49681E-005	0.00000E+000	-1.31000E-001	1.15170E-004	9	...........
	13726	274.54	-1.28995E-001	-1.71071E-005	0.00000E+000	-1.29000E-001	1.09166E-004	9	...........
	13728	274.58	-1.27054E-001	-1.69047E-005	0.00000E+000	-1.27000E-001	1.14253E-004	9	...........
	13730	274.62	-1.24913E-001	-1.55369E-005	0.00000E+000	-1.25000E-001	1.09583E-004	9	...........
	13732	274.66	-1.23015E-001	-1.54179E-005	0.00000E+000	-1.23000E-001	1.17923E-004	9	...........
	13734	274.7	-1.21043E-001	-1.52813E-005	0.00000E+000	-1.21000E-001	1.06580E-004	9	...........
	13736	274.74	-1.19053E-001	-1.51534E-005	0.00000E+000	-1.19000E-001	1.16672E-004	9	...........
	13738	274.78	-1.17038E-001	-1.49364E-005	0.00000E+000	-1.17000E-001	1.07998E-004	9	...........
	13740	274.82	-1.15034E-001	-1.48730E-005	0.00000E+000	-1.15000E-001	1.16755E-004	9	...........
	13742	274.86	-1.13039E-001	-1.48296E-005	0.00000E+000	-1.13000E-001	1.14420E-004	9	...........
	13744	274.9	-1.11035E-001	-1.46816E-005	0.00000E+000	-1.11000E-001	1.15504E-004	9	...........
	13746	274.94	-1.08898E-001	-1.61449E-005	0.00000E+000	-1.09000E-001	1.17422E-004	9	...........
	13748	274.98	-1.06999E-001	-1.50910E-005	0.00000E+000	-1.07000E-001	1.17172E-004	9	...........
	13750	275.02	-1.05006E-001	-1.49859E-005	0.00000E+000	-1.05000E-001	1.05246E-004	9	...........
	13752	275.06	-1.03038E-001	-1.52601E-005	0.00000E+000	-1.03000E-001	1.13336E-004	9	...........
	13754	275.1	-1.00916E-001	-1.45969E-005	0.00000E+000	-1.01000E-001	1.11501E-004	9	...........
	13756	275.14	-9.90284E-002	-1.46758E-005	0.00000E+000	-9.90000E-002	1.14503E-004	9	...........
	13758	275.18	-9.70514E-002	-1.46019E-005	0.00000E+000	-9.70000E-002	1.09833E-004	9	...........
	13760	275.22	-9.50792E-002	-1.46650E-005	0.00000E+000	-9.50000E-002	1.14670E-004	9	...........
	13762	275.26	-9.30496E-002	-1.54525E-005	0.00000E+000	-9.30000E-002	1.12752E-004	9	...........
	13764	275.3	-9.10800E-002	-1.56063E-005	0.00000E+000	-9.10000E-002	1.17255E-004	9	...........
	13766	275.34	-8.90776E-002	-1.47319E-005	0.00000E+000	-8.90000E-002	1.14170E-004	9	...........
	13768	275.38	-8.70634E-002	-1.42766E-005	0.00000E+000	-8.70000E-002	1.17756E-004	9	...........
	13770	275.42	-8.49638E-002	-1.46751E-005	0.00000E+000	-8.50000E-002	1.06997E-004	9	...........
	13772	275.46	-8.30016E-002	-1.44041E-005	0.00000E+000	-8.30000E-002	1.16672E-004	9	...........
	13774	275.5	-8.10192E-002	-1.42374E-005	0.00000E+000	-8.10000E-002	1.12001E-004	9	...........
	13776	275.54	-7.90356E-002	-1.44915E-005	0.00000E+000	-7.90000E-002	1.21092E-004	9	...........
	13778	275.58	-7.69218E-002	-1.41533E-005	0.00000E+000	-7.70000E-002	1.16004E-004	9	...........
	13780	275.62	-7.50372E-002	-1.41140E-005	0.00000E+000	-7.50000E-002	1.18423E-004	9	...........
	13782	275.66	-7.30598E-002	-1.46676E-005	0.00000E+000	-7.30000E-002	1.09416E-004	9	...........
	13784	275.7	-7.10909E-002	-1.60904E-005	0.00000E+000	-7.10000E-002	1.17923E-004	9	...........
	13786	275.74	-6.90408E-002	-1.36401E-005	0.00000E+000	-6.90000E-002	1.12752E-004	9	...........
	13788	275.78	-6.70766E-002	-1.44660E-005	0.00000E+000	-6.70000E-002	1.14670E-004	9	...........
	13790	275.82	-6.50799E-002	-1.36943E-005	0.00000E+000	-6.50000E-002	1.08415E-004	9	...........
	13792	275.86	-6.30952E-002	-1.39814E-005	0.00000E+000	-6.30000E-002	1.20258E-004	9	...........
	13794	275.9	-6.09692E-002	-1.39223E-005	0.00000E+000	-6.10000E-002	1.13586E-004	9	...........
	13796	275.94	-5.90618E-002	-1.43584E-005	0.00000E+000	-5.90000E-002	1.18757E-004	9	...........
	13798	275.98	-5.70646E-002	-1.36943E-005	0.00000E+000	-5.70000E-002	1.16088E-004	9	...........
	13800	276.02	-5.50859E-002	-1.46808E-005	0.00000E+000	-5.50000E-002	1.22760E-004	9	...........
	13802	276.06	-5.30253E-002	-1.48508E-005	0.00000E+000	-5.30000E-002	1.11834E-004	9	...........
	13804	276.1	-5.10525E-002	-1.31728E-005	0.00000E+000	-5.10000E-002	1.19090E-004	9	...........
	13806	276.14	-4.90590E-002	-1.36916E-005	0.00000E+000	-4.90000E-002	1.11918E-004	9	...........
	13808	276.18	-4.70823E-002	-1.29340E-005	0.00000E+000	-4.70000E-002	1.18340E-004	9	...........
	13810	276.22	-4.50200E-002	-1.33004E-005	0.00000E+000	-4.50000E-002	1.11251E-004	9	...........
	13812	276.26	-4.30704E-002	-1.29445E-005	0.00000E+000	-4.30000E-002	1.17005E-004	9	...........
	13814	276.3	-4.10932E-002	-1.32237E-005	0.00000E+000	-4.10000E-002	1.08081E-004	9	...........
	13816	276.34	-3.91024E-002	-1.30707E-005	0.00000E+000	-3.90000E-002	1.20675E-004	9	...........
	13818	276.38	-3.69771E-002	-1.26662E-005	0.00000E+000	-3.70000E-002	1.15087E-004	9	...........
	13820	276.42	-3.50506E-002	-1.39078E-005	0.00000E+000	-3.50000E-002	1.21009E-004	9	...........
	13822	276.46	-3.30492E-002	-1.29536E-005	0.00000E+000	-3.30000E-002	1.13002E-004	9	...........
	13824	276.5	-3.10633E-002	-1.28706E-005	0.00000E+000	-3.10000E-002	1.20425E-004	9	...........
	13826	276.54	-2.89613E-002	-1.26899E-005	0.00000E+000	-2.90000E-002	1.12919E-004	9	...........
	13828	276.58	-2.70327E-002	-1.27641E-005	0.00000E+000	-2.70000E-002	1.23844E-004	9	...........
	13830	276.62	-2.50834E-002	-1.21348E-005	0.00000E+000	-2.50000E-002	1.14670E-004	9	...........
	13832	276.66	-2.31068E-002	-1.29106E-005	0.00000E+000	-2.30000E-002	1.27764E-004	9	...........
	13834	276.7	-2.10776E-002	-1.23409E-005	0.00000E+000	-2.10000E-002	1.19090E-004	9	...........
	13836	276.74	-1.90907E-002	-1.04913E-005	0.00000E+000	-1.90000E-002	1.26346E-004	9	...........
	13838	276.78	-1.71112E-002	-1.06978E-005	0.00000E+000	-1.70000E-002	1.12251E-004	9	...........
	13840	276.82	-1.51241E-002	-1.25199E-005	0.00000E+000	-1.50000E-002	1.22260E-004	9	...........
	13842	276.86	-1.31171E-002	-1.20804E-005	0.00000E+000	-1.30000E-002	1.10917E-004	9	...........
	13844	276.9	-1.10849E-002	-1.20580E-005	0.00000E+000	-1.10000E-002	1.20758E-004	9	...........
	13846	276.94	-9.06062E-003	-1.19561E-005	0.00000E+000	-9.00000E-003	1.08582E-004	9	...........
	13848	276.98	-7.09626E-003	-1.15261E-005	0.00000E+000	-7.00000E-003	1.18673E-004	9	...........
	13850	277.02	-4.95910E-003	-1.20243E-005	0.00000E+000	-5.00000E-003	1.15170E-004	9	...........
	13852	277.06	-3.06304E-003	-1.13651E-005	0.00000E+000	-3.00000E-003	1.23260E-004	9	...........
	13854	277.1	-1.07167E-003	-1.16368E-005	0.00000E+000	-9.99995E-004	1.10583E-004	9	...........
	13856	277.14	7.66756E-004	-1.20929E-005	0.00000E+000	1.00000E-003	1.19924E-004	9	...........
	13858	277.18	2.80442E-003	-1.26455E-005	0.00000E+000	3.00001E-003	1.11834E-004	9	...........
	13860	277.22	4.82708E-003	-1.12533E-005	0.00000E+000	5.00000E-003	1.14336E-004	9	...........
	13862	277.26	6.80136E-003	-1.15306E-005	0.00000E+000	7.00001E-003	1.13419E-004	9	...........
	13864	277.3	8.79974E-003	-1.10610E-005	0.00000E+000	9.00000E-003	1.21509E-004	9	...........
	13866	277.34	1.07949E-002	-1.08990E-005	0.00000E+000	1.10000E-002	1.12001E-004	9	...........
	13868	277.38	1.28270E-002	-1.09619E-005	0.00000E+000	1.30000E-002	1.16922E-004	9	...........
	13870	277.42	1.48438E-002	-1.06987E-005	0.00000E+000	1.50000E-002	1.14336E-004	9	...........
	13872	277.46	1.67166E-002	-1.07744E-005	0.00000E+000	1.70000E-002	1.12001E-004	9	...........
	13874	277.5	1.89089E-002	-1.13938E-005	0.00000E+000	1.90000E-002	1.06663E-004	9	...........
	13876	277.54	2.08612E-002	-1.26952E-005	0.00000E+000	2.10000E-002	1.12585E-004	9	...........
	13878	277.58	2.28499E-002	-1.04374E-005	0.00000E+000	2.30000E-002	1.06163E-004	9	...........
	13880	277.62	2.48020E-002	-1.01809E-005	0.00000E+000	2.50000E-002	1.16922E-004	9	...........
	13882	277.66	2.68748E-002	-9.94235E-006	0.00000E+000	2.70000E-002	1.13753E-004	9	...........
	13884	277.7	2.88493E-002	-9.60522E-006	0.00000E+000	2.90000E-002	1.12502E-004	9	...........
	13886	277.74	3.08229E-002	-9.89030E-006	0.00000E+000	3.10000E-002	1.06830E-004	9	...........
	13888	277.78	3.27829E-002	-9.86712E-006	0.00000E+000	3.30000E-002	1.07748E-004	9	...........
	13890	277.82	3.47949E-002	-1.02761E-005	0.00000E+000	3.50000E-002	1.01993E-004	9	...........
	13892	277.86	3.68052E-002	-7.11122E-006	0.00000E+000	3.70000E-002	1.06330E-004	9	...........
	13894	277.9	3.87553E-002	-9.43591E-006	0.00000E+000	3.90000E-002	1.11751E-004	9	...........
	13896	277.94	4.06991E-002	-9.10829E-006	0.00000E+000	4.10000E-002	1.12585E-004	9	...........
	13898	277.98	4.28187E-002	-9.27777E-006	0.00000E+000	4.30000E-002	1.10250E-004	9	...........
	13900	278.02	4.48408E-002	-8.56281E-006	0.00000E+000	4.50000E-002	1.11668E-004	9	...........
	13902	278.06	4.68445E-002	-8.37265E-006	0.00000E+000	4.70000E-002	1.16672E-004	9	...........
	13904	278.1	4.87650E-002	-8.94465E-006	0.00000E+000	4.90000E-002	1.19341E-004	9	...........
	13906	278.14	5.08381E-002	-9.07276E-006	0.00000E+000	5.10000E-002	1.12251E-004	9	...........
	13908	278.18	5.28360E-002	-8.18465E-006	0.00000E+000	5.30000E-002	1.15254E-004	9	...........
	13910	278.22	5.48168E-002	-7.43984E-006	0.00000E+000	5.50000E-002	1.11251E-004	9	...........
	13912	278.26	5.67607E-002	-9.01404E-006	0.00000E+000	5.70000E-002	1.10667E-004	9	...........
	13914	278.3	5.87885E-002	-8.12093E-006	0.00000E+000	5.90000E-002	1.08582E-004	9	...........
	13916	278.34	6.08156E-002	-7.85737E-006	0.00000E+000	6.10000E-002	1.08081E-004	9	...........
	13918	278.38	6.27846E-002	-6.90220E-006	0.00000E+000	6.30000E-002	1.08582E-004	9	...........
	13920	278.42	6.47316E-002	-7.60481E-006	0.00000E+000	6.50000E-002	1.08415E-004	9	...........
	13922	278.46	6.68849E-002	-7.12673E-006	0.00000E+000	6.70000E-002	1.07247E-004	9	...........
	13924	278.5	6.88367E-002	-6.94140E-006	0.00000E+000	6.90000E-002	1.10250E-004	9	...........
	13926	278.54	7.08139E-002	-6.75824E-006	0.00000E+000	7.10000E-002	1.04328E-004	9	...........
	13928	278.58	7.27480E-002	-7.00946E-006	0.00000E+000	7.30000E-002	1.06080E-004	9	...........
	13930	278.62	7.48023E-002	-5.09880E-006	0.00000E+000	7.50000E-002	1.08749E-004	9	...........
	13932	278.66	7.68185E-002	-7.00846E-006	0.00000E+000	7.70000E-002	1.16922E-004	9	...........
	13934	278.7	7.87897E-002	-6.66583E-006	0.00000E+000	7.90000E-002	1.04578E-004	9	...........
	13936	278.74	8.07262E-002	-5.83260E-006	0.00000E+000	8.10000E-002	1.06747E-004	9	...........
	13938	278.78	8.27751E-002	-6.03028E-006	0.00000E+000	8.30000E-002	1.03077E-004	9	...........
	13940	278.82	8.48162E-002	-5.34384E-006	0.00000E+000	8.50000E-002	1.10166E-004	9	...........
	13942	278.86	8.67753E-002	-5.38972E-006	0.00000E+000	8.70000E-002	1.05579E-004	9	...........
	13944	278.9	8.87285E-002	-5.28896E-006	0.00000E+000	8.90000E-002	1.08915E-004	9	...........
	13946	278.94	9.08514E-002	-4.97202E-006	0.00000E+000	9.10000E-002	1.12418E-004	9	...........
	13948	278.98	9.28089E-002	-6.21160E-006	0.00000E+000	9.30000E-002	1.11417E-004	9	...........
	13950	279.02	9.47752E-002	-6.62579E-006	0.00000E+000	9.50000E-002	1.10500E-004	9	...........
	13952	279.06	9.67021E-002	-4.49127E-006	0.00000E+000	9.70000E-002	1.08749E-004	9	...........
	13954	279.1	9.87694E-002	-4.26891E-006	0.00000E+000	9.90000E-002	1.05579E-004	9	...........
	13956	279.14	1.00816E-001	-4.45841E-006	0.00000E+000	1.01000E-001	1.15254E-004	9	...........
	13958	279.18	1.02739E-001	-3.75346E-006	0.00000E+000	1.03000E-001	1.08498E-004	9	...........
	13960	279.22	1.04679E-001	-4.29093E-006	0.00000E+000	1.05000E-001	1.11918E-004	9	...........
	13962	279.26	1.06705E-001	-3.57497E-006	0.00000E+000	1.07000E-001	1.06413E-004	9	...........
	13964	279.3	1.08797E-001	-3.91410E-006	0.00000E+000	1.09000E-001	1.10834E-004	9	...........
	13966	279.34	1.10734E-001	-8.85130E-007	0.00000E+000	1.11000E-001	1.11751E-004	9	...........
	13968	279.38	1.12698E-001	-1.58824E-006	0.00000E+000	1.13000E-001	1.14587E-004	9	...........
	13970	279.42	1.14694E-001	-3.01282E-006	0.00000E+000	1.15000E-001	1.10166E-004	9	...........
	13972	279.46	1.16816E-001	-3.05602E-006	0.00000E+000	1.17000E-001	1.17005E-004	9	...........
	13974	279.5	1.18751E-001	-2.90105E-006	0.00000E+000	1.19000E-001	1.06663E-004	9	...........
	13976	279.54	1.20656E-001	-2.76410E-006	0.00000E+000	1.21000E-001	1.09916E-004	9	...........
	13978	279.58	1.22790E-001	-2.27701E-006	0.00000E+000	1.23000E-001	1.06497E-004	9	...........
	13980	279.62	1.24811E-001	-1.75122E-006	0.00000E+000	1.25000E-001	1.10166E-004	9	...........
	13982	279.66	1.26762E-001	-2.41630E-006	0.00000E+000	1.27000E-001	1.07331E-004	9	...........
	13984	279.7	1.28634E-001	8.82075E-007	0.00000E+000	1.29000E-001	1.11834E-004	9	...........
	13986	279.74	1.30683E-001	-1.54827E-007	0.00000E+000	1.31000E-001	1.10917E-004	9	...........
	13988	279.78	1.32792E-001	-1.28081E-006	0.00000E+000	1.33000E-001	1.11751E-004	9	...........
	13990	279.82	1.34718E-001	-1.04143E-006	0.00000E+000	1.35000E-001	1.07998E-004	9	...........
	13992	279.86	1.36671E-001	-1.00807E-006	0.00000E+000	1.37000E-001	1.13753E-004	9	...........
	13994	279.9	1.38681E-001	-5.09136E-007	0.00000E+000	1.39000E-001	1.13502E-004	9	...........
	13996	279.94	1.40762E-001	-4.61761E-007	0.00000E+000	1.41000E-001	1.14170E-004	9	...........
	13998	279.98	1.42691E-001	-3.45559E-008	0.00000E+000	1.43000E-001	1.14170E-004	9	...........
	14000	280.02	1.44626E-001	-1.24468E-007	0.00000E+000	1.45000E-001	1.12835E-004	9	...........