File: 20191209/CVTESTKRISTALL3BOX6_3.DTA
EXPLAIN
TAG	CV
TITLE	LABEL	CV	Test &Identifier
DATE	LABEL	12/9/2019	Date
TIME	LABEL	14:12:54	Time
NOTES	NOTES	1	&Notes...

PSTAT	PSTAT	REF600-16093	Potentiostat
VINIT	POTEN	0.00000E+000	T	Initial &E (V)
VLIMIT1	POTEN	8.00000E-001	F	Scan Limit &1 (V)
VLIMIT2	POTEN	-5.00000E-001	F	Scan Limit &2 (V)
VFINAL	POTEN	0.00000E+000	T	Final &E (V)
SCANRATE	QUANT	4.99999E+001	&Scan Rate (mV/s)
STEPSIZE	QUANT	1.00000E+000	St&ep Size (mV)
CYCLES	IQUANT	5	C&ycles (#)
IMODE	SELECTOR	1	I/E Range &Mode
IRANGE	QUANT	1.50000E+001	&Max Current (mA)
AREA	QUANT	1.00000E+000	Electrode &Area (cm^2)
ELECTRODETYPE	SELECTOR	0	Electrode Type
STRIPPING	TOGGLE	F	Used for Stripping
POLARITY	TOGGLE	F	Signal Polarity
CONDIT	TWOPARAM	F	1.50000E+001	0.00000E+000	Conditionin&g	Time(s)	E(V)
DELAY	TWOPARAM	T	5.00000E+000	0.00000E+000	Init. De&lay	Time(s)	Stab.(mV/s)
EQDELAY	QUANT	3.00000E+000	Equil. &Time (s)
IRCOMP	SELECTOR	0	IRCom&p
PFCOR	QUANT	0.00000E+000	PF Corr. (ohm)
SAMPLINGMODE	SELECTOR	2	Sampling &Mode
OCVCURVE	TABLE	20
	Pt	T	Vf	Vm	Ach	Over
	#	s	V vs. Ref.	V	V	bits
	0	0.25	1.76191E-001	1.76191E-001	6.72254E-005	...........
	1	0.5	1.76192E-001	1.76217E-001	6.61005E-005	...........
	2	0.75	1.76193E-001	1.76138E-001	7.27670E-005	...........
	3	1	1.76190E-001	1.76108E-001	7.18504E-005	...........
	4	1.25	1.76175E-001	1.76003E-001	6.84338E-005	...........
	5	1.5	1.76142E-001	1.76030E-001	7.03087E-005	...........
	6	1.75	1.76096E-001	1.75913E-001	7.47670E-005	...........
	7	2	1.76047E-001	1.75927E-001	7.49753E-005	...........
	8	2.25	1.76000E-001	1.75954E-001	7.15587E-005	...........
	9	2.5	1.75962E-001	1.75822E-001	7.37253E-005	...........
	10	2.75	1.75933E-001	1.75874E-001	7.15170E-005	...........
	11	3	1.75903E-001	1.75741E-001	7.37253E-005	...........
	12	3.25	1.75868E-001	1.75717E-001	7.23920E-005	...........
	13	3.5	1.75824E-001	1.75665E-001	7.44337E-005	...........
	14	3.75	1.75773E-001	1.75642E-001	7.11837E-005	...........
	15	4	1.75724E-001	1.75643E-001	7.03087E-005	...........
	16	4.25	1.75684E-001	1.75580E-001	7.10170E-005	...........
	17	4.5	1.75652E-001	1.75569E-001	6.86421E-005	...........
	18	4.75	1.75622E-001	1.75473E-001	6.79754E-005	...........
	19	5	1.75589E-001	1.75521E-001	6.41838E-005	...........
EOC	QUANT	0.1755891	Open Circuit (V)
PSTATMODEL	IQUANT	4	Pstat Model
PSTATSECTION	LABEL	REF600-16093	Pstat Section
PSTATSERIALNO	LABEL	16093	Pstat Serial Number
CTRLMODE	IQUANT	1	Control Mode
IESTAB	IQUANT	2	I/E Stability
CASPEED	IQUANT	2	Control Amp Speed
CONVENTION	IQUANT	1	Current Convention
ICHRANGE	IQUANT	2	Ich Range
ICHRANGEMODE	TOGGLE	F	Ich Auto Range
ICHOFFSETENABLE	TOGGLE	F	Ich Offset Enable
ICHOFFSET	QUANT	0	Ich Offset (V)
ICHFILTER	IQUANT	2	Ich Filter
VCHRANGE	IQUANT	2	Vch Range
VCHRANGEMODE	TOGGLE	F	Vch Auto Range
VCHOFFSETENABLE	TOGGLE	F	Vch Offset Enable
VCHOFFSET	QUANT	0	Vch Offset (V)
VCHFILTER	IQUANT	2	Vch Filter
ACHRANGE	IQUANT	2	Ach Range
ACHOFFSETENABLE	TOGGLE	F	Ach Offset Enable
ACHOFFSET	QUANT	0	Ach Offset (V)
ACHFILTER	IQUANT	1	Ach Filter
IERANGELOWERLIMIT	IQUANT	1	I/E Range Lower Limit
IERANGEMODE	TOGGLE	F	I/E AutoRange
IERANGE	IQUANT	10	I/E Range
POSFEEDENABLE	TOGGLE	F	Positive Feedback IR Comp
POSFEEDRESISTANCE	QUANT	0	Positive Feedback Resistance (ohm)
ACHSELECT	IQUANT	0	Ach Select
CABLEID	IQUANT	14	Cable ID
DCCALDATE	LABEL	11/5/2019	DC Calibration Date
ACCALDATE	LABEL		AC Calibration Date
THERMOSELECT	IQUANT	1	Thermo Select
FRAMEWORKVERSION	QUANT	6.12	Framework Version
INSTRUMENTVERSION	LABEL	3.11	Instrument Version
CURVE1	TABLE
	Pt	T	Vf	Im	Vu	Sig	Ach	IERange	Over
	#	s	V vs. Ref.	A	V	V	V	#	bits
	0	0.02	1.75184E-001	-2.09758E-006	0.00000E+000	1.75600E-001	6.14598E-005	10	...........
	4	0.1	1.79141E-001	-9.33238E-007	0.00000E+000	1.79600E-001	6.37117E-005	10	...........
	8	0.18	1.83144E-001	-9.48251E-007	0.00000E+000	1.83600E-001	5.69561E-005	10	...........
	12	0.26	1.87116E-001	-8.03125E-007	0.00000E+000	1.87600E-001	5.96250E-005	10	...........
	16	0.34	1.91112E-001	-6.32976E-007	0.00000E+000	1.91600E-001	5.62055E-005	10	...........
	20	0.42	1.95086E-001	-4.64496E-007	0.00000E+000	1.95600E-001	5.64557E-005	10	...........
	24	0.5	1.99125E-001	-5.12872E-007	0.00000E+000	1.99600E-001	5.80404E-005	10	...........
	28	0.58	2.03102E-001	-3.16034E-007	0.00000E+000	2.03600E-001	4.53633E-005	10	...........
	32	0.66	2.07106E-001	9.26554E-008	0.00000E+000	2.07600E-001	6.32947E-005	10	...........
	36	0.74	2.11068E-001	2.06087E-007	0.00000E+000	2.11600E-001	5.77067E-005	10	...........
	40	0.82	2.15083E-001	5.42886E-008	0.00000E+000	2.15600E-001	6.17934E-005	10	...........
	44	0.9	2.19230E-001	2.94498E-007	0.00000E+000	2.19600E-001	6.28776E-005	10	...........
	48	0.98	2.23113E-001	2.46122E-007	0.00000E+000	2.23600E-001	5.80404E-005	10	...........
	52	1.06	2.27063E-001	4.01257E-007	0.00000E+000	2.27600E-001	5.82906E-005	10	...........
	56	1.14	2.31069E-001	7.14864E-007	0.00000E+000	2.31600E-001	6.22938E-005	10	...........
	60	1.22	2.35022E-001	5.73074E-007	0.00000E+000	2.35600E-001	6.52963E-005	10	...........
	64	1.3	2.39063E-001	5.43047E-007	0.00000E+000	2.39600E-001	6.21270E-005	10	...........
	68	1.38	2.43019E-001	9.80095E-007	0.00000E+000	2.43600E-001	6.50461E-005	10	...........
	72	1.46	2.47071E-001	1.36043E-006	0.00000E+000	2.47600E-001	5.94582E-005	10	...........
	76	1.54	2.51059E-001	1.28870E-006	0.00000E+000	2.51600E-001	5.67059E-005	10	...........
	80	1.62	2.55078E-001	1.83584E-006	0.00000E+000	2.55600E-001	6.04590E-005	10	...........
	84	1.7	2.59018E-001	2.04936E-006	0.00000E+000	2.59600E-001	6.10428E-005	10	...........
	88	1.78	2.63049E-001	2.16780E-006	0.00000E+000	2.63600E-001	6.22104E-005	10	...........
	92	1.86	2.66992E-001	2.34628E-006	0.00000E+000	2.67600E-001	6.22104E-005	10	...........
	96	1.94	2.71043E-001	2.87174E-006	0.00000E+000	2.71600E-001	5.34533E-005	10	...........
	100	2.02	2.75025E-001	3.14198E-006	0.00000E+000	2.75600E-001	5.74565E-005	10	...........
	104	2.1	2.79077E-001	3.22705E-006	0.00000E+000	2.79600E-001	5.90412E-005	10	...........
	108	2.18	2.83001E-001	3.36217E-006	0.00000E+000	2.83600E-001	5.92080E-005	10	...........
	112	2.26	2.87027E-001	3.96269E-006	0.00000E+000	2.87600E-001	6.40453E-005	10	...........
	116	2.34	2.90998E-001	3.88929E-006	0.00000E+000	2.91600E-001	6.42955E-005	10	...........
	120	2.42	2.94997E-001	4.41642E-006	0.00000E+000	2.95600E-001	6.74647E-005	10	...........
	124	2.5	2.98992E-001	4.76506E-006	0.00000E+000	2.99600E-001	5.86242E-005	10	...........
	128	2.58	3.03040E-001	4.96690E-006	0.00000E+000	3.03600E-001	6.44623E-005	10	...........
	132	2.66	3.07008E-001	5.94775E-006	0.00000E+000	3.07600E-001	6.02088E-005	10	...........
	136	2.74	3.11013E-001	5.76092E-006	0.00000E+000	3.11600E-001	6.60469E-005	10	...........
	140	2.82	3.14990E-001	6.15460E-006	0.00000E+000	3.15600E-001	6.21270E-005	10	...........
	144	2.9	3.18986E-001	6.73511E-006	0.00000E+000	3.19600E-001	6.11262E-005	10	...........
	148	2.98	3.22973E-001	7.19551E-006	0.00000E+000	3.23600E-001	6.63805E-005	10	...........
	152	3.06	3.27018E-001	7.23721E-006	0.00000E+000	3.27600E-001	6.45457E-005	10	...........
	156	3.14	3.30984E-001	7.91947E-006	0.00000E+000	3.31600E-001	6.94664E-005	10	...........
	160	3.22	3.34991E-001	8.38487E-006	0.00000E+000	3.35600E-001	6.60469E-005	10	...........
	164	3.3	3.38963E-001	8.81358E-006	0.00000E+000	3.39600E-001	6.95498E-005	10	...........
	168	3.38	3.42980E-001	9.14554E-006	0.00000E+000	3.43600E-001	7.15514E-005	10	...........
	172	3.46	3.46932E-001	9.53254E-006	0.00000E+000	3.47600E-001	6.74647E-005	10	...........
	176	3.54	3.50987E-001	9.96458E-006	0.00000E+000	3.51600E-001	6.65473E-005	10	...........
	180	3.62	3.54962E-001	1.03516E-005	0.00000E+000	3.55600E-001	7.22186E-005	10	...........
	184	3.7	3.58978E-001	1.07736E-005	0.00000E+000	3.59600E-001	6.87992E-005	10	...........
	188	3.78	3.62964E-001	1.17211E-005	0.00000E+000	3.63600E-001	7.02170E-005	10	...........
	192	3.86	3.66976E-001	1.25518E-005	0.00000E+000	3.67600E-001	7.17182E-005	10	...........
	196	3.94	3.70933E-001	1.29322E-005	0.00000E+000	3.71600E-001	7.19684E-005	10	...........
	200	4.02	3.74985E-001	1.41082E-005	0.00000E+000	3.75600E-001	7.20518E-005	10	...........
	204	4.1	3.78965E-001	1.47688E-005	0.00000E+000	3.79600E-001	6.86324E-005	10	...........
	208	4.18	3.82993E-001	1.58013E-005	0.00000E+000	3.83600E-001	6.17934E-005	10	...........
	212	4.26	3.86938E-001	1.71392E-005	0.00000E+000	3.87600E-001	6.82153E-005	10	...........
	216	4.34	3.90962E-001	1.86238E-005	0.00000E+000	3.91600E-001	6.82987E-005	10	...........
	220	4.42	3.94918E-001	2.03103E-005	0.00000E+000	3.95600E-001	7.25522E-005	10	...........
	224	4.5	3.98969E-001	2.19967E-005	0.00000E+000	3.99600E-001	6.61303E-005	10	...........
	228	4.58	4.02945E-001	2.35714E-005	0.00000E+000	4.03600E-001	6.72145E-005	10	...........
	232	4.66	4.06972E-001	2.59218E-005	0.00000E+000	4.07600E-001	6.28776E-005	10	...........
	236	4.74	4.10917E-001	2.80403E-005	0.00000E+000	4.11600E-001	6.38785E-005	10	...........
	240	4.82	4.14935E-001	3.01922E-005	0.00000E+000	4.15600E-001	7.03838E-005	10	...........
	244	4.9	4.18877E-001	3.32999E-005	0.00000E+000	4.19600E-001	7.03004E-005	10	...........
	248	4.98	4.22922E-001	3.63342E-005	0.00000E+000	4.23600E-001	7.38866E-005	10	...........
	252	5.06	4.26710E-001	3.88781E-005	0.00000E+000	4.27600E-001	6.52963E-005	10	...........
	256	5.14	4.30939E-001	4.27014E-005	0.00000E+000	4.31600E-001	6.44623E-005	10	...........
	260	5.22	4.34889E-001	4.66232E-005	0.00000E+000	4.35600E-001	7.01336E-005	10	...........
	264	5.3	4.38912E-001	5.03114E-005	0.00000E+000	4.39600E-001	6.44623E-005	10	...........
	268	5.38	4.42901E-001	5.30571E-005	0.00000E+000	4.43600E-001	6.20436E-005	10	...........
	272	5.46	4.46906E-001	5.72040E-005	0.00000E+000	4.47600E-001	5.97918E-005	10	...........
	276	5.54	4.50875E-001	6.02183E-005	0.00000E+000	4.51600E-001	6.98834E-005	10	...........
	280	5.62	4.54924E-001	6.41001E-005	0.00000E+000	4.55600E-001	7.12178E-005	10	...........
	284	5.7	4.58855E-001	6.67707E-005	0.00000E+000	4.59600E-001	6.48793E-005	10	...........
	288	5.78	4.62915E-001	7.06191E-005	0.00000E+000	4.63600E-001	6.68809E-005	10	...........
	292	5.86	4.66877E-001	7.25658E-005	0.00000E+000	4.67600E-001	6.81320E-005	10	...........
	296	5.94	4.70905E-001	7.42556E-005	0.00000E+000	4.71600E-001	6.53797E-005	10	...........
	300	6.02	4.74878E-001	7.56634E-005	0.00000E+000	4.75600E-001	6.81320E-005	10	...........
	304	6.1	4.78915E-001	7.73015E-005	0.00000E+000	4.79600E-001	6.54631E-005	10	...........
	308	6.18	4.82864E-001	7.77653E-005	0.00000E+000	4.83600E-001	6.52129E-005	10	...........
	312	6.26	4.86886E-001	7.74600E-005	0.00000E+000	4.87600E-001	6.51295E-005	10	...........
	316	6.34	4.90872E-001	7.69546E-005	0.00000E+000	4.91600E-001	6.62971E-005	10	...........
	320	6.42	4.94881E-001	7.65008E-005	0.00000E+000	4.95600E-001	7.26356E-005	10	...........
	324	6.5	4.98810E-001	7.52614E-005	0.00000E+000	4.99600E-001	6.92996E-005	10	...........
	328	6.58	5.02893E-001	7.42806E-005	0.00000E+000	5.03600E-001	6.24606E-005	10	...........
	332	6.66	5.06836E-001	7.28927E-005	0.00000E+000	5.07600E-001	6.52963E-005	10	...........
	336	6.74	5.10890E-001	7.15432E-005	0.00000E+000	5.11600E-001	6.49627E-005	10	...........
	340	6.82	5.14810E-001	6.93713E-005	0.00000E+000	5.15600E-001	6.45457E-005	10	...........
	344	6.9	5.18847E-001	6.79701E-005	0.00000E+000	5.19600E-001	6.33781E-005	10	...........
	348	6.98	5.22809E-001	6.61719E-005	0.00000E+000	5.23600E-001	6.51295E-005	10	...........
	352	7.06	5.26875E-001	6.44720E-005	0.00000E+000	5.27600E-001	5.86242E-005	10	...........
	356	7.14	5.30711E-001	6.31108E-005	0.00000E+000	5.31600E-001	6.11262E-005	10	...........
	360	7.22	5.34853E-001	6.13360E-005	0.00000E+000	5.35600E-001	6.70477E-005	10	...........
	364	7.3	5.38765E-001	5.99081E-005	0.00000E+000	5.39600E-001	6.70477E-005	10	...........
	368	7.38	5.42830E-001	5.85519E-005	0.00000E+000	5.43600E-001	5.61221E-005	10	...........
	372	7.46	5.46782E-001	5.71774E-005	0.00000E+000	5.47600E-001	6.39619E-005	10	...........
	376	7.54	5.50835E-001	5.58929E-005	0.00000E+000	5.51600E-001	6.38785E-005	10	...........
	380	7.62	5.54662E-001	5.49254E-005	0.00000E+000	5.55600E-001	5.94582E-005	10	...........
	384	7.7	5.58820E-001	5.27352E-005	0.00000E+000	5.59600E-001	5.44541E-005	10	...........
	388	7.78	5.62736E-001	5.23115E-005	0.00000E+000	5.63600E-001	5.87076E-005	10	...........
	392	7.86	5.66813E-001	5.14474E-005	0.00000E+000	5.67600E-001	6.28776E-005	10	...........
	396	7.94	5.70771E-001	5.05950E-005	0.00000E+000	5.71600E-001	6.25440E-005	10	...........
	400	8.02	5.74787E-001	4.97626E-005	0.00000E+000	5.75600E-001	5.89578E-005	10	...........
	404	8.1	5.78728E-001	4.89735E-005	0.00000E+000	5.79600E-001	5.90412E-005	10	...........
	408	8.18	5.82819E-001	4.88701E-005	0.00000E+000	5.83600E-001	5.72897E-005	10	...........
	412	8.26	5.86672E-001	4.78225E-005	0.00000E+000	5.87600E-001	6.16266E-005	10	...........
	416	8.34	5.90800E-001	4.71837E-005	0.00000E+000	5.91600E-001	5.53715E-005	10	...........
	420	8.42	5.94752E-001	4.74205E-005	0.00000E+000	5.95600E-001	6.28776E-005	10	...........
	424	8.5	5.98790E-001	4.65898E-005	0.00000E+000	5.99600E-001	6.19602E-005	10	...........
	428	8.58	6.02768E-001	4.58291E-005	0.00000E+000	6.03600E-001	5.64557E-005	10	...........
	432	8.66	6.06790E-001	4.52903E-005	0.00000E+000	6.07600E-001	6.27108E-005	10	...........
	436	8.74	6.10703E-001	4.47132E-005	0.00000E+000	6.11600E-001	6.38785E-005	10	...........
	440	8.82	6.14778E-001	4.48566E-005	0.00000E+000	6.15600E-001	6.31278E-005	10	...........
	444	8.9	6.18665E-001	4.42378E-005	0.00000E+000	6.19600E-001	6.53797E-005	10	...........
	448	8.98	6.22769E-001	4.40309E-005	0.00000E+000	6.23600E-001	6.35449E-005	10	...........
	452	9.06	6.26711E-001	4.43512E-005	0.00000E+000	6.27600E-001	6.12930E-005	10	...........
	456	9.14	6.30781E-001	4.35438E-005	0.00000E+000	6.31600E-001	5.45375E-005	10	...........
	460	9.22	6.34609E-001	4.30417E-005	0.00000E+000	6.35600E-001	6.49627E-005	10	...........
	464	9.3	6.38774E-001	4.27865E-005	0.00000E+000	6.39600E-001	6.03756E-005	10	...........
	468	9.38	6.42631E-001	4.26013E-005	0.00000E+000	6.43600E-001	6.50461E-005	10	...........
	472	9.46	6.46762E-001	4.24412E-005	0.00000E+000	6.47600E-001	6.37117E-005	10	...........
	476	9.54	6.50709E-001	4.25563E-005	0.00000E+000	6.51600E-001	6.52129E-005	10	...........
	480	9.62	6.54770E-001	4.17222E-005	0.00000E+000	6.55600E-001	6.22938E-005	10	...........
	484	9.7	6.58596E-001	4.17689E-005	0.00000E+000	6.59600E-001	6.16266E-005	10	...........
	488	9.78	6.62768E-001	4.16438E-005	0.00000E+000	6.63600E-001	6.42121E-005	10	...........
	492	9.86	6.66637E-001	4.09599E-005	0.00000E+000	6.67600E-001	6.13764E-005	10	...........
	496	9.94	6.70762E-001	4.09482E-005	0.00000E+000	6.71600E-001	6.27108E-005	10	...........
	500	10.02	6.74701E-001	4.08215E-005	0.00000E+000	6.75600E-001	5.87910E-005	10	...........
	504	10.1	6.78733E-001	4.07697E-005	0.00000E+000	6.79600E-001	5.93748E-005	10	...........
	508	10.18	6.82576E-001	4.13269E-005	0.00000E+000	6.83600E-001	6.53797E-005	10	...........
	512	10.26	6.86769E-001	4.07614E-005	0.00000E+000	6.87600E-001	5.68727E-005	10	...........
	516	10.34	6.90610E-001	4.09315E-005	0.00000E+000	6.91600E-001	6.57967E-005	10	...........
	520	10.42	6.94761E-001	4.06480E-005	0.00000E+000	6.95600E-001	5.72897E-005	10	...........
	524	10.5	6.98675E-001	4.02643E-005	0.00000E+000	6.99600E-001	6.24606E-005	10	...........
	528	10.58	7.02693E-001	3.98556E-005	0.00000E+000	7.03600E-001	5.23690E-005	10	...........
	532	10.66	7.06646E-001	3.99924E-005	0.00000E+000	7.07600E-001	6.31278E-005	10	...........
	536	10.74	7.10761E-001	3.98306E-005	0.00000E+000	7.11600E-001	5.87076E-005	10	...........
	540	10.82	7.14579E-001	4.04611E-005	0.00000E+000	7.15600E-001	6.24606E-005	10	...........
	544	10.9	7.18759E-001	4.01809E-005	0.00000E+000	7.19600E-001	5.41205E-005	10	...........
	548	10.98	7.22615E-001	4.02209E-005	0.00000E+000	7.23600E-001	6.22938E-005	10	...........
	552	11.06	7.26703E-001	3.99273E-005	0.00000E+000	7.27600E-001	6.32113E-005	10	...........
	556	11.14	7.30721E-001	3.96821E-005	0.00000E+000	7.31600E-001	5.67059E-005	10	...........
	560	11.22	7.34737E-001	3.98773E-005	0.00000E+000	7.35600E-001	6.26274E-005	10	...........
	564	11.3	7.38576E-001	4.04528E-005	0.00000E+000	7.39600E-001	6.89660E-005	10	...........
	568	11.38	7.42756E-001	3.98773E-005	0.00000E+000	7.43600E-001	6.31278E-005	10	...........
	572	11.46	7.46579E-001	3.99707E-005	0.00000E+000	7.47600E-001	6.26274E-005	10	...........
	576	11.54	7.50709E-001	3.99724E-005	0.00000E+000	7.51600E-001	5.96250E-005	10	...........
	580	11.62	7.54618E-001	4.00208E-005	0.00000E+000	7.55600E-001	5.89578E-005	10	...........
	584	11.7	7.58747E-001	4.02576E-005	0.00000E+000	7.59600E-001	5.72063E-005	10	...........
	588	11.78	7.62639E-001	4.05679E-005	0.00000E+000	7.63600E-001	6.07092E-005	10	...........
	592	11.86	7.66730E-001	4.05879E-005	0.00000E+000	7.67600E-001	5.73731E-005	10	...........
	596	11.94	7.70589E-001	3.99524E-005	0.00000E+000	7.71600E-001	6.02922E-005	10	...........
	600	12.02	7.74706E-001	3.98589E-005	0.00000E+000	7.75600E-001	6.21270E-005	10	...........
	604	12.1	7.78615E-001	4.05812E-005	0.00000E+000	7.79600E-001	5.67893E-005	10	...........
	608	12.18	7.82753E-001	4.07164E-005	0.00000E+000	7.83600E-001	5.47043E-005	10	...........
	612	12.26	7.86570E-001	4.09516E-005	0.00000E+000	7.87600E-001	5.67893E-005	10	...........
	616	12.34	7.90748E-001	4.06480E-005	0.00000E+000	7.91600E-001	4.74484E-005	10	...........
	620	12.42	7.94568E-001	4.07747E-005	0.00000E+000	7.95600E-001	6.91328E-005	10	...........
	624	12.5	7.98691E-001	4.04962E-005	0.00000E+000	7.99600E-001	5.90412E-005	10	...........
	628	12.58	7.94587E-001	3.41973E-005	0.00000E+000	7.95600E-001	6.73813E-005	10	...........
	632	12.66	7.90770E-001	3.00237E-005	0.00000E+000	7.91600E-001	5.52047E-005	10	...........
	636	12.74	7.86588E-001	2.67058E-005	0.00000E+000	7.87600E-001	6.47125E-005	10	...........
	640	12.82	7.82769E-001	2.43454E-005	0.00000E+000	7.83600E-001	5.78736E-005	10	...........
	644	12.9	7.78632E-001	2.18383E-005	0.00000E+000	7.79600E-001	6.40453E-005	10	...........
	648	12.98	7.74718E-001	2.00817E-005	0.00000E+000	7.75600E-001	6.12930E-005	10	...........
	652	13.06	7.70607E-001	1.79916E-005	0.00000E+000	7.71600E-001	6.89660E-005	10	...........
	656	13.14	7.66732E-001	1.64669E-005	0.00000E+000	7.67600E-001	6.04590E-005	10	...........
	660	13.22	7.62642E-001	1.50840E-005	0.00000E+000	7.63600E-001	6.68809E-005	10	...........
	664	13.3	7.58753E-001	1.40365E-005	0.00000E+000	7.59600E-001	5.69561E-005	10	...........
	668	13.38	7.54635E-001	1.28921E-005	0.00000E+000	7.55600E-001	6.29610E-005	10	...........
	672	13.46	7.50721E-001	1.24267E-005	0.00000E+000	7.51600E-001	6.18768E-005	10	...........
	676	13.54	7.46592E-001	1.13591E-005	0.00000E+000	7.47600E-001	6.27942E-005	10	...........
	680	13.62	7.42767E-001	1.01831E-005	0.00000E+000	7.43600E-001	5.92080E-005	10	...........
	684	13.7	7.38594E-001	9.80945E-006	0.00000E+000	7.39600E-001	6.22104E-005	10	...........
	688	13.78	7.34710E-001	9.50251E-006	0.00000E+000	7.35600E-001	5.72897E-005	10	...........
	692	13.86	7.30729E-001	8.47162E-006	0.00000E+000	7.31600E-001	5.40371E-005	10	...........
	696	13.94	7.26705E-001	8.18637E-006	0.00000E+000	7.27600E-001	5.76234E-005	10	...........
	700	14.02	7.22630E-001	6.79516E-006	0.00000E+000	7.23600E-001	5.80404E-005	10	...........
	704	14.1	7.18769E-001	6.91193E-006	0.00000E+000	7.19600E-001	5.77067E-005	10	...........
	708	14.18	7.14597E-001	6.71008E-006	0.00000E+000	7.15600E-001	5.88744E-005	10	...........
	712	14.26	7.10765E-001	6.72510E-006	0.00000E+000	7.11600E-001	5.49545E-005	10	...........
	716	14.34	7.06652E-001	5.63915E-006	0.00000E+000	7.07600E-001	6.36283E-005	10	...........
	720	14.42	7.02688E-001	4.82177E-006	0.00000E+000	7.03600E-001	5.96250E-005	10	...........
	724	14.5	6.98681E-001	3.98438E-006	0.00000E+000	6.99600E-001	5.62055E-005	10	...........
	728	14.58	6.94768E-001	4.12783E-006	0.00000E+000	6.95600E-001	5.89578E-005	10	...........
	732	14.66	6.90620E-001	4.13618E-006	0.00000E+000	6.91600E-001	5.90412E-005	10	...........
	736	14.74	6.86782E-001	3.85927E-006	0.00000E+000	6.87600E-001	5.84574E-005	10	...........
	740	14.82	6.82597E-001	3.28210E-006	0.00000E+000	6.83600E-001	5.58719E-005	10	...........
	744	14.9	6.78728E-001	2.57648E-006	0.00000E+000	6.79600E-001	5.62055E-005	10	...........
	748	14.98	6.74701E-001	2.06437E-006	0.00000E+000	6.75600E-001	5.93748E-005	10	...........
	752	15.06	6.70761E-001	2.46806E-006	0.00000E+000	6.71600E-001	5.22856E-005	10	...........
	756	15.14	6.66655E-001	2.49475E-006	0.00000E+000	6.67600E-001	6.33781E-005	10	...........
	760	15.22	6.62777E-001	1.79747E-006	0.00000E+000	6.63600E-001	6.13764E-005	10	...........
	764	15.3	6.58614E-001	1.27035E-006	0.00000E+000	6.59600E-001	6.19602E-005	10	...........
	768	15.38	6.54766E-001	1.11021E-006	0.00000E+000	6.55600E-001	5.88744E-005	10	...........
	772	15.46	6.50706E-001	1.28202E-006	0.00000E+000	6.51600E-001	5.83740E-005	10	...........
	776	15.54	6.46770E-001	1.13523E-006	0.00000E+000	6.47600E-001	5.12848E-005	10	...........
	780	15.62	6.42646E-001	9.75090E-007	0.00000E+000	6.43600E-001	5.66225E-005	10	...........
	784	15.7	6.38791E-001	7.73248E-007	0.00000E+000	6.39600E-001	5.56217E-005	10	...........
	788	15.78	6.34642E-001	5.43047E-007	0.00000E+000	6.35600E-001	5.84574E-005	10	...........
	792	15.86	6.30790E-001	7.63239E-007	0.00000E+000	6.31600E-001	5.53715E-005	10	...........
	796	15.94	6.26717E-001	1.87738E-007	0.00000E+000	6.27600E-001	5.86242E-005	10	...........
	800	16.02	6.22772E-001	3.46209E-007	0.00000E+000	6.23600E-001	5.62055E-005	10	...........
	804	16.1	6.18684E-001	2.44454E-007	0.00000E+000	6.19600E-001	5.95416E-005	10	...........
	808	16.18	6.14788E-001	-3.17702E-007	0.00000E+000	6.15600E-001	6.41287E-005	10	...........
	812	16.26	6.10703E-001	-2.50977E-007	0.00000E+000	6.11600E-001	6.42955E-005	10	...........
	816	16.34	6.06757E-001	-4.22794E-007	0.00000E+000	6.07600E-001	6.00420E-005	10	...........
	820	16.42	6.02756E-001	-6.09623E-007	0.00000E+000	6.03600E-001	6.15432E-005	10	...........
	824	16.5	5.98782E-001	-2.22619E-007	0.00000E+000	5.99600E-001	5.55383E-005	10	...........
	828	16.58	5.94752E-001	-9.29901E-007	0.00000E+000	5.95600E-001	5.94582E-005	10	...........
	832	16.66	5.90806E-001	-7.93116E-007	0.00000E+000	5.91600E-001	5.98752E-005	10	...........
	836	16.74	5.86689E-001	-1.28187E-006	0.00000E+000	5.87600E-001	6.22938E-005	10	...........
	840	16.82	5.82826E-001	-1.20514E-006	0.00000E+000	5.83600E-001	6.23772E-005	10	...........
	844	16.9	5.78738E-001	-8.04793E-007	0.00000E+000	5.79600E-001	6.87992E-005	10	...........
	848	16.98	5.74790E-001	-1.51208E-006	0.00000E+000	5.75600E-001	6.72979E-005	10	...........
	852	17.06	5.70769E-001	-1.78231E-006	0.00000E+000	5.71600E-001	7.03838E-005	10	...........
	856	17.14	5.66820E-001	-1.19346E-006	0.00000E+000	5.67600E-001	6.07926E-005	10	...........
	860	17.22	5.62737E-001	-1.63051E-006	0.00000E+000	5.63600E-001	6.52129E-005	10	...........
	864	17.3	5.58828E-001	-1.73727E-006	0.00000E+000	5.59600E-001	6.39619E-005	10	...........
	868	17.38	5.54685E-001	-1.92577E-006	0.00000E+000	5.55600E-001	6.58801E-005	10	...........
	872	17.46	5.50832E-001	-2.39117E-006	0.00000E+000	5.51600E-001	6.26274E-005	10	...........
	876	17.54	5.46776E-001	-2.07089E-006	0.00000E+000	5.47600E-001	6.12096E-005	10	...........
	880	17.62	5.42826E-001	-2.32111E-006	0.00000E+000	5.43600E-001	5.86242E-005	10	...........
	884	17.7	5.38762E-001	-2.17932E-006	0.00000E+000	5.39600E-001	6.73813E-005	10	...........
	888	17.78	5.34862E-001	-2.40785E-006	0.00000E+000	5.35600E-001	5.97918E-005	10	...........
	892	17.86	5.30720E-001	-2.75316E-006	0.00000E+000	5.31600E-001	6.86324E-005	10	...........
	896	17.94	5.26875E-001	-3.01672E-006	0.00000E+000	5.27600E-001	6.36283E-005	10	...........
	900	18.02	5.22810E-001	-2.50294E-006	0.00000E+000	5.23600E-001	6.46291E-005	10	...........
	904	18.1	5.18854E-001	-2.64640E-006	0.00000E+000	5.19600E-001	6.27942E-005	10	...........
	908	18.18	5.14812E-001	-2.72647E-006	0.00000E+000	5.15600E-001	6.05424E-005	10	...........
	912	18.26	5.10891E-001	-2.75816E-006	0.00000E+000	5.11600E-001	6.65473E-005	10	...........
	916	18.34	5.06834E-001	-2.90829E-006	0.00000E+000	5.07600E-001	6.47125E-005	10	...........
	920	18.42	5.02900E-001	-2.96334E-006	0.00000E+000	5.03600E-001	7.13846E-005	10	...........
	924	18.5	4.98812E-001	-3.09345E-006	0.00000E+000	4.99600E-001	6.73813E-005	10	...........
	928	18.58	4.94879E-001	-3.46211E-006	0.00000E+000	4.95600E-001	6.94664E-005	10	...........
	932	18.66	4.90854E-001	-3.59389E-006	0.00000E+000	4.91600E-001	6.09594E-005	10	...........
	936	18.74	4.86886E-001	-3.61557E-006	0.00000E+000	4.87600E-001	6.32113E-005	10	...........
	940	18.82	4.82856E-001	-3.85578E-006	0.00000E+000	4.83600E-001	5.98752E-005	10	...........
	944	18.9	4.78923E-001	-3.82576E-006	0.00000E+000	4.79600E-001	6.32947E-005	10	...........
	948	18.98	4.74871E-001	-3.93752E-006	0.00000E+000	4.75600E-001	7.03004E-005	10	...........
	952	19.06	4.70902E-001	-4.20442E-006	0.00000E+000	4.71600E-001	6.13764E-005	10	...........
	956	19.14	4.66875E-001	-4.46131E-006	0.00000E+000	4.67600E-001	6.41287E-005	10	...........
	960	19.22	4.62930E-001	-4.55139E-006	0.00000E+000	4.63600E-001	6.48793E-005	10	...........
	964	19.3	4.58866E-001	-5.00011E-006	0.00000E+000	4.59600E-001	6.48793E-005	10	...........
	968	19.38	4.54928E-001	-4.45797E-006	0.00000E+000	4.55600E-001	6.26274E-005	10	...........
	972	19.46	4.50889E-001	-4.65648E-006	0.00000E+000	4.51600E-001	6.43789E-005	10	...........
	976	19.54	4.46902E-001	-5.26201E-006	0.00000E+000	4.47600E-001	6.62137E-005	10	...........
	980	19.62	4.42903E-001	-5.28536E-006	0.00000E+000	4.43600E-001	6.46291E-005	10	...........
	984	19.7	4.38941E-001	-4.84831E-006	0.00000E+000	4.39600E-001	6.25440E-005	10	...........
	988	19.78	4.34918E-001	-4.86333E-006	0.00000E+000	4.35600E-001	6.42955E-005	10	...........
	992	19.86	4.30966E-001	-5.12188E-006	0.00000E+000	4.31600E-001	6.22104E-005	10	...........
	996	19.94	4.26797E-001	-5.16526E-006	0.00000E+000	4.27600E-001	6.80485E-005	10	...........
	1000	20.02	4.22918E-001	-5.18527E-006	0.00000E+000	4.23600E-001	6.77983E-005	10	...........
	1004	20.1	4.18891E-001	-6.16446E-006	0.00000E+000	4.19600E-001	6.92162E-005	10	...........
	1008	20.18	4.14938E-001	-5.63733E-006	0.00000E+000	4.15600E-001	6.52129E-005	10	...........
	1012	20.26	4.10905E-001	-6.23118E-006	0.00000E+000	4.11600E-001	7.26356E-005	10	...........
	1016	20.34	4.06986E-001	-5.94260E-006	0.00000E+000	4.07600E-001	6.35449E-005	10	...........
	1020	20.42	4.02944E-001	-6.37297E-006	0.00000E+000	4.03600E-001	6.20436E-005	10	...........
	1024	20.5	3.98954E-001	-6.87675E-006	0.00000E+000	3.99600E-001	6.20436E-005	10	...........
	1028	20.58	3.94919E-001	-6.45805E-006	0.00000E+000	3.95600E-001	6.98834E-005	10	...........
	1032	20.66	3.90968E-001	-6.76999E-006	0.00000E+000	3.91600E-001	6.79651E-005	10	...........
	1036	20.74	3.86943E-001	-6.38799E-006	0.00000E+000	3.87600E-001	6.75481E-005	10	...........
	1040	20.82	3.83007E-001	-7.18368E-006	0.00000E+000	3.83600E-001	6.21270E-005	10	...........
	1044	20.9	3.78970E-001	-7.17534E-006	0.00000E+000	3.79600E-001	6.33781E-005	10	...........
	1048	20.98	3.75005E-001	-7.15198E-006	0.00000E+000	3.75600E-001	6.16266E-005	10	...........
	1052	21.06	3.70930E-001	-7.65576E-006	0.00000E+000	3.71600E-001	7.18850E-005	10	...........
	1056	21.14	3.66979E-001	-7.71748E-006	0.00000E+000	3.67600E-001	6.37117E-005	10	...........
	1060	21.22	3.62959E-001	-8.39974E-006	0.00000E+000	3.63600E-001	7.04672E-005	10	...........
	1064	21.3	3.58995E-001	-8.44978E-006	0.00000E+000	3.59600E-001	6.96332E-005	10	...........
	1068	21.38	3.54965E-001	-8.53486E-006	0.00000E+000	3.55600E-001	7.28024E-005	10	...........
	1072	21.46	3.50999E-001	-8.45812E-006	0.00000E+000	3.51600E-001	6.86324E-005	10	...........
	1076	21.54	3.46925E-001	-8.76672E-006	0.00000E+000	3.47600E-001	6.82987E-005	10	...........
	1080	21.62	3.42985E-001	-8.82344E-006	0.00000E+000	3.43600E-001	6.89660E-005	10	...........
	1084	21.7	3.38959E-001	-9.10535E-006	0.00000E+000	3.39600E-001	7.20518E-005	10	...........
	1088	21.78	3.35012E-001	-9.08367E-006	0.00000E+000	3.35600E-001	6.70477E-005	10	...........
	1092	21.86	3.30992E-001	-9.46733E-006	0.00000E+000	3.31600E-001	6.56299E-005	10	...........
	1096	21.94	3.27029E-001	-9.60912E-006	0.00000E+000	3.27600E-001	6.77983E-005	10	...........
	1100	22.02	3.22982E-001	-1.03014E-005	0.00000E+000	3.23600E-001	7.12178E-005	10	...........
	1104	22.1	3.18982E-001	-1.07151E-005	0.00000E+000	3.19600E-001	6.93830E-005	10	...........
	1108	22.18	3.14987E-001	-1.14874E-005	0.00000E+000	3.15600E-001	7.27190E-005	10	...........
	1112	22.26	3.11014E-001	-1.12122E-005	0.00000E+000	3.11600E-001	7.11344E-005	10	...........
	1116	22.34	3.07002E-001	-1.17293E-005	0.00000E+000	3.07600E-001	6.88826E-005	10	...........
	1120	22.42	3.03049E-001	-1.21196E-005	0.00000E+000	3.03600E-001	7.18016E-005	10	...........
	1124	22.5	2.99006E-001	-1.20980E-005	0.00000E+000	2.99600E-001	7.21352E-005	10	...........
	1128	22.58	2.95005E-001	-1.26401E-005	0.00000E+000	2.95600E-001	7.92243E-005	10	...........
	1132	22.66	2.90996E-001	-1.33974E-005	0.00000E+000	2.91600E-001	6.92162E-005	10	...........
	1136	22.74	2.87032E-001	-1.39145E-005	0.00000E+000	2.87600E-001	7.19684E-005	10	...........
	1140	22.82	2.82998E-001	-1.36176E-005	0.00000E+000	2.83600E-001	7.24688E-005	10	...........
	1144	22.9	2.79088E-001	-1.44233E-005	0.00000E+000	2.79600E-001	6.85490E-005	10	...........
	1148	22.98	2.75022E-001	-1.43900E-005	0.00000E+000	2.75600E-001	6.58801E-005	10	...........
	1152	23.06	2.71058E-001	-1.50589E-005	0.00000E+000	2.71600E-001	7.07174E-005	10	...........
	1156	23.14	2.66999E-001	-1.55576E-005	0.00000E+000	2.67600E-001	7.00502E-005	10	...........
	1160	23.22	2.63050E-001	-1.59063E-005	0.00000E+000	2.63600E-001	6.62971E-005	10	...........
	1164	23.3	2.59020E-001	-1.66486E-005	0.00000E+000	2.59600E-001	7.38032E-005	10	...........
	1168	23.38	2.55081E-001	-1.76044E-005	0.00000E+000	2.55600E-001	7.08008E-005	10	...........
	1172	23.46	2.51066E-001	-1.77012E-005	0.00000E+000	2.51600E-001	7.08842E-005	10	...........
	1176	23.54	2.47079E-001	-1.79531E-005	0.00000E+000	2.47600E-001	6.87158E-005	10	...........
	1180	23.62	2.43028E-001	-1.93776E-005	0.00000E+000	2.43600E-001	6.84655E-005	10	...........
	1184	23.7	2.39073E-001	-2.01033E-005	0.00000E+000	2.39600E-001	6.96332E-005	10	...........
	1188	23.78	2.35037E-001	-2.05653E-005	0.00000E+000	2.35600E-001	6.73813E-005	10	...........
	1192	23.86	2.31089E-001	-2.16146E-005	0.00000E+000	2.31600E-001	6.99668E-005	10	...........
	1196	23.94	2.27079E-001	-2.21434E-005	0.00000E+000	2.27600E-001	6.79651E-005	10	...........
	1200	24.02	2.23134E-001	-2.23152E-005	0.00000E+000	2.23600E-001	6.70477E-005	10	...........
	1204	24.1	2.19238E-001	-2.34595E-005	0.00000E+000	2.19600E-001	6.18768E-005	10	...........
	1208	24.18	2.15080E-001	-2.37398E-005	0.00000E+000	2.15600E-001	5.81238E-005	10	...........
	1212	24.26	2.11069E-001	-2.51577E-005	0.00000E+000	2.11600E-001	6.30444E-005	10	...........
	1216	24.34	2.07108E-001	-2.62736E-005	0.00000E+000	2.07600E-001	6.31278E-005	10	...........
	1220	24.42	2.03088E-001	-2.70877E-005	0.00000E+000	2.03600E-001	6.66307E-005	10	...........
	1224	24.5	1.99128E-001	-2.78283E-005	0.00000E+000	1.99600E-001	6.48793E-005	10	...........
	1228	24.58	1.95121E-001	-2.92946E-005	0.00000E+000	1.95600E-001	6.71311E-005	10	...........
	1232	24.66	1.91100E-001	-2.97083E-005	0.00000E+000	1.91600E-001	6.33781E-005	10	...........
	1236	24.74	1.87106E-001	-3.18635E-005	0.00000E+000	1.87600E-001	5.81238E-005	10	...........
	1240	24.82	1.83156E-001	-3.30846E-005	0.00000E+000	1.83600E-001	6.12930E-005	10	...........
	1244	24.9	1.79140E-001	-3.42823E-005	0.00000E+000	1.79600E-001	5.65391E-005	10	...........
	1248	24.98	1.75182E-001	-3.54083E-005	0.00000E+000	1.75600E-001	5.66225E-005	10	...........
	1252	25.06	1.71126E-001	-3.64041E-005	0.00000E+000	1.71600E-001	5.34533E-005	10	...........
	1256	25.14	1.67111E-001	-3.91615E-005	0.00000E+000	1.67600E-001	5.36201E-005	10	...........
	1260	25.22	1.63133E-001	-4.05644E-005	0.00000E+000	1.63600E-001	5.44541E-005	10	...........
	1264	25.3	1.59160E-001	-4.21558E-005	0.00000E+000	1.59600E-001	5.91246E-005	10	...........
	1268	25.38	1.55138E-001	-4.41192E-005	0.00000E+000	1.55600E-001	5.52047E-005	10	...........
	1272	25.46	1.51179E-001	-4.58290E-005	0.00000E+000	1.51600E-001	6.05424E-005	10	...........
	1276	25.54	1.47173E-001	-4.80109E-005	0.00000E+000	1.47600E-001	5.82072E-005	10	...........
	1280	25.62	1.43160E-001	-5.03596E-005	0.00000E+000	1.43600E-001	6.05424E-005	10	...........
	1284	25.7	1.39127E-001	-5.25232E-005	0.00000E+000	1.39600E-001	5.87910E-005	10	...........
	1288	25.78	1.35164E-001	-5.37959E-005	0.00000E+000	1.35600E-001	5.72897E-005	10	...........
	1292	25.86	1.31167E-001	-5.57610E-005	0.00000E+000	1.31600E-001	5.92080E-005	10	...........
	1296	25.94	1.27227E-001	-5.81247E-005	0.00000E+000	1.27600E-001	6.08760E-005	10	...........
	1300	26.02	1.23282E-001	-6.09638E-005	0.00000E+000	1.23600E-001	5.85408E-005	10	...........
	1304	26.1	1.19227E-001	-6.25402E-005	0.00000E+000	1.19600E-001	6.37117E-005	10	...........
	1308	26.18	1.15147E-001	-6.45786E-005	0.00000E+000	1.15600E-001	6.56299E-005	10	...........
	1312	26.26	1.11178E-001	-6.62167E-005	0.00000E+000	1.11600E-001	6.52963E-005	10	...........
	1316	26.34	1.07157E-001	-6.83419E-005	0.00000E+000	1.07600E-001	6.58801E-005	10	...........
	1320	26.42	1.03204E-001	-6.96964E-005	0.00000E+000	1.03600E-001	6.32113E-005	10	...........
	1324	26.5	9.92498E-002	-7.16498E-005	0.00000E+000	9.96000E-002	6.07926E-005	10	...........
	1328	26.58	9.52474E-002	-7.30394E-005	0.00000E+000	9.56000E-002	6.01254E-005	10	...........
	1332	26.66	9.13968E-002	-7.44773E-005	0.00000E+000	9.16000E-002	5.74565E-005	10	...........
	1336	26.74	8.72061E-002	-7.50177E-005	0.00000E+000	8.76000E-002	6.36283E-005	10	...........
	1340	26.82	8.32227E-002	-7.62688E-005	0.00000E+000	8.36000E-002	5.90412E-005	10	...........
	1344	26.9	7.92471E-002	-7.72463E-005	0.00000E+000	7.96000E-002	6.07092E-005	10	...........
	1348	26.98	7.53154E-002	-7.80287E-005	0.00000E+000	7.56000E-002	6.38785E-005	10	...........
	1352	27.06	7.12765E-002	-7.80604E-005	0.00000E+000	7.16000E-002	6.64639E-005	10	...........
	1356	27.14	6.74010E-002	-7.84257E-005	0.00000E+000	6.76000E-002	5.63723E-005	10	...........
	1360	27.22	6.32151E-002	-7.90279E-005	0.00000E+000	6.36000E-002	6.49627E-005	10	...........
	1364	27.3	5.92598E-002	-7.97402E-005	0.00000E+000	5.96000E-002	6.42955E-005	10	...........
	1368	27.38	5.52752E-002	-8.04908E-005	0.00000E+000	5.56000E-002	7.15514E-005	10	...........
	1372	27.46	5.13311E-002	-7.99237E-005	0.00000E+000	5.16000E-002	6.31278E-005	10	...........
	1376	27.54	4.72971E-002	-7.93815E-005	0.00000E+000	4.76000E-002	6.69643E-005	10	...........
	1380	27.62	4.33052E-002	-7.84791E-005	0.00000E+000	4.36000E-002	6.21270E-005	10	...........
	1384	27.7	3.92784E-002	-7.94733E-005	0.00000E+000	3.96000E-002	6.33781E-005	10	...........
	1388	27.78	3.52598E-002	-7.90663E-005	0.00000E+000	3.56000E-002	6.47959E-005	10	...........
	1392	27.86	3.12849E-002	-7.86142E-005	0.00000E+000	3.16000E-002	6.59635E-005	10	...........
	1396	27.94	2.73730E-002	-7.82672E-005	0.00000E+000	2.76000E-002	6.57133E-005	10	...........
	1400	28.02	2.33214E-002	-7.73981E-005	0.00000E+000	2.36000E-002	6.14598E-005	10	...........
	1404	28.1	1.94328E-002	-7.69528E-005	0.00000E+000	1.96000E-002	6.47125E-005	10	...........
	1408	28.18	1.53361E-002	-7.64707E-005	0.00000E+000	1.56000E-002	6.91328E-005	10	...........
	1412	28.26	1.12322E-002	-7.64473E-005	0.00000E+000	1.16000E-002	6.24606E-005	10	...........
	1416	28.34	7.25808E-003	-7.56032E-005	0.00000E+000	7.60001E-003	6.52129E-005	10	...........
	1420	28.42	3.31894E-003	-7.41403E-005	0.00000E+000	3.60002E-003	7.16348E-005	10	...........
	1424	28.5	-6.48388E-004	-7.32295E-005	0.00000E+000	-3.99992E-004	7.11344E-005	10	...........
	1428	28.58	-4.50554E-003	-7.28926E-005	0.00000E+000	-4.39999E-003	6.39619E-005	10	...........
	1432	28.66	-8.64818E-003	-7.17265E-005	0.00000E+000	-8.39999E-003	6.35449E-005	10	...........
	1436	28.74	-1.26577E-002	-7.10626E-005	0.00000E+000	-1.24000E-002	6.40453E-005	10	...........
	1440	28.82	-1.66237E-002	-7.01685E-005	0.00000E+000	-1.64000E-002	6.46291E-005	10	...........
	1444	28.9	-2.05891E-002	-6.93395E-005	0.00000E+000	-2.04000E-002	6.11262E-005	10	...........
	1448	28.98	-2.46535E-002	-6.88607E-005	0.00000E+000	-2.44000E-002	6.64639E-005	10	...........
	1452	29.06	-2.85048E-002	-6.80166E-005	0.00000E+000	-2.84000E-002	5.94582E-005	10	...........
	1456	29.14	-3.26266E-002	-6.72543E-005	0.00000E+000	-3.24000E-002	6.72979E-005	10	...........
	1460	29.22	-3.65237E-002	-6.63585E-005	0.00000E+000	-3.64000E-002	6.52129E-005	10	...........
	1464	29.3	-4.05994E-002	-6.54728E-005	0.00000E+000	-4.04000E-002	6.69643E-005	10	...........
	1468	29.38	-4.45704E-002	-6.48439E-005	0.00000E+000	-4.44000E-002	6.22938E-005	10	...........
	1472	29.46	-4.86211E-002	-6.39264E-005	0.00000E+000	-4.84000E-002	7.11344E-005	10	...........
	1476	29.54	-5.25257E-002	-6.31374E-005	0.00000E+000	-5.24000E-002	6.22938E-005	10	...........
	1480	29.62	-5.66378E-002	-6.21682E-005	0.00000E+000	-5.64000E-002	6.75481E-005	10	...........
	1484	29.7	-6.04962E-002	-6.19797E-005	0.00000E+000	-6.04000E-002	6.20436E-005	10	...........
	1488	29.78	-6.45819E-002	-6.08104E-005	0.00000E+000	-6.44000E-002	5.96250E-005	10	...........
	1492	29.86	-6.85822E-002	-6.06652E-005	0.00000E+000	-6.84000E-002	6.47125E-005	10	...........
	1496	29.94	-7.26143E-002	-5.96027E-005	0.00000E+000	-7.24000E-002	6.90494E-005	10	...........
	1500	30.02	-7.64734E-002	-5.91072E-005	0.00000E+000	-7.64000E-002	6.52963E-005	10	...........
	1504	30.1	-8.06077E-002	-5.82665E-005	0.00000E+000	-8.04000E-002	6.41287E-005	10	...........
	1508	30.18	-8.44908E-002	-5.76176E-005	0.00000E+000	-8.44000E-002	6.33781E-005	10	...........
	1512	30.26	-8.85026E-002	-5.65567E-005	0.00000E+000	-8.84000E-002	6.28776E-005	10	...........
	1516	30.34	-9.25749E-002	-5.59378E-005	0.00000E+000	-9.24000E-002	6.28776E-005	10	...........
	1520	30.42	-9.65892E-002	-5.54741E-005	0.00000E+000	-9.64000E-002	6.46291E-005	10	...........
	1524	30.5	-1.00474E-001	-5.50287E-005	0.00000E+000	-1.00400E-001	5.91246E-005	10	...........
	1528	30.58	-1.04600E-001	-5.45849E-005	0.00000E+000	-1.04400E-001	6.72145E-005	10	...........
	1532	30.66	-1.08461E-001	-5.41479E-005	0.00000E+000	-1.08400E-001	5.68727E-005	10	...........
	1536	30.74	-1.12541E-001	-5.32655E-005	0.00000E+000	-1.12400E-001	6.90494E-005	10	...........
	1540	30.82	-1.16565E-001	-5.32321E-005	0.00000E+000	-1.16400E-001	6.79651E-005	10	...........
	1544	30.9	-1.20553E-001	-5.29886E-005	0.00000E+000	-1.20400E-001	7.40535E-005	10	...........
	1548	30.98	-1.24466E-001	-5.24398E-005	0.00000E+000	-1.24400E-001	6.92162E-005	10	...........
	1552	31.06	-1.28573E-001	-5.19276E-005	0.00000E+000	-1.28400E-001	6.48793E-005	10	...........
	1556	31.14	-1.32435E-001	-5.13354E-005	0.00000E+000	-1.32400E-001	6.05424E-005	10	...........
	1560	31.22	-1.36589E-001	-5.13988E-005	0.00000E+000	-1.36400E-001	6.69643E-005	10	...........
	1564	31.3	-1.40522E-001	-5.12037E-005	0.00000E+000	-1.40400E-001	6.71311E-005	10	...........
	1568	31.38	-1.44520E-001	-5.08450E-005	0.00000E+000	-1.44400E-001	6.72979E-005	10	...........
	1572	31.46	-1.48481E-001	-5.01144E-005	0.00000E+000	-1.48400E-001	6.79651E-005	10	...........
	1576	31.54	-1.52568E-001	-5.04030E-005	0.00000E+000	-1.52400E-001	6.85490E-005	10	...........
	1580	31.62	-1.56447E-001	-5.02845E-005	0.00000E+000	-1.56400E-001	6.47959E-005	10	...........
	1584	31.7	-1.60560E-001	-5.02028E-005	0.00000E+000	-1.60400E-001	6.56299E-005	10	...........
	1588	31.78	-1.64476E-001	-4.97190E-005	0.00000E+000	-1.64400E-001	5.92080E-005	10	...........
[...]
	12587	251.76	-2.37024E-001	-2.88292E-005	0.00000E+000	-2.37000E-001	6.79651E-005	10	...........
	12589	251.8	-2.34854E-001	-2.86757E-005	0.00000E+000	-2.35000E-001	6.19602E-005	10	...........
	12591	251.84	-2.32957E-001	-2.90777E-005	0.00000E+000	-2.33000E-001	7.00502E-005	10	...........
	12593	251.88	-2.30920E-001	-2.87975E-005	0.00000E+000	-2.31000E-001	6.74647E-005	10	...........
	12595	251.92	-2.29039E-001	-2.85556E-005	0.00000E+000	-2.29000E-001	6.93830E-005	10	...........
	12597	251.96	-2.26887E-001	-2.79651E-005	0.00000E+000	-2.27000E-001	6.01254E-005	10	...........
	12599	252	-2.25006E-001	-2.75764E-005	0.00000E+000	-2.25000E-001	6.47125E-005	10	...........
	12601	252.04	-2.22945E-001	-2.74897E-005	0.00000E+000	-2.23000E-001	6.67975E-005	10	...........
	12603	252.08	-2.21039E-001	-2.72795E-005	0.00000E+000	-2.21000E-001	6.61303E-005	10	...........
	12605	252.12	-2.18989E-001	-2.74396E-005	0.00000E+000	-2.19000E-001	6.15432E-005	10	...........
	12607	252.16	-2.17049E-001	-2.72778E-005	0.00000E+000	-2.17000E-001	6.57133E-005	10	...........
	12609	252.2	-2.14897E-001	-2.74630E-005	0.00000E+000	-2.15000E-001	6.20436E-005	10	...........
	12611	252.24	-2.13033E-001	-2.68491E-005	0.00000E+000	-2.13000E-001	6.72145E-005	10	...........
	12613	252.28	-2.10882E-001	-2.70076E-005	0.00000E+000	-2.11000E-001	6.24606E-005	10	...........
	12615	252.32	-2.09000E-001	-2.61385E-005	0.00000E+000	-2.09000E-001	6.71311E-005	10	...........
	12617	252.36	-2.06939E-001	-2.64238E-005	0.00000E+000	-2.07000E-001	6.27942E-005	10	...........
	12619	252.4	-2.05038E-001	-2.62836E-005	0.00000E+000	-2.05000E-001	6.33781E-005	10	...........
	12621	252.44	-2.02911E-001	-2.60701E-005	0.00000E+000	-2.03000E-001	5.20354E-005	10	...........
	12623	252.48	-2.01034E-001	-2.61035E-005	0.00000E+000	-2.01000E-001	6.17934E-005	10	...........
	12625	252.52	-1.98994E-001	-2.59250E-005	0.00000E+000	-1.99000E-001	6.67141E-005	10	...........
	12627	252.56	-1.97074E-001	-2.61135E-005	0.00000E+000	-1.97000E-001	6.49627E-005	10	...........
	12629	252.6	-1.95004E-001	-2.58499E-005	0.00000E+000	-1.95000E-001	6.02922E-005	10	...........
	12631	252.64	-1.93074E-001	-2.56364E-005	0.00000E+000	-1.93000E-001	6.91328E-005	10	...........
	12633	252.68	-1.90917E-001	-2.54996E-005	0.00000E+000	-1.91000E-001	5.15350E-005	10	...........
	12635	252.72	-1.89078E-001	-2.55563E-005	0.00000E+000	-1.89000E-001	6.85490E-005	10	...........
	12637	252.76	-1.86909E-001	-2.48924E-005	0.00000E+000	-1.87000E-001	6.43789E-005	10	...........
	12639	252.8	-1.85010E-001	-2.45872E-005	0.00000E+000	-1.85000E-001	6.61303E-005	10	...........
	12641	252.84	-1.82981E-001	-2.42719E-005	0.00000E+000	-1.83000E-001	6.59635E-005	10	...........
	12643	252.88	-1.81049E-001	-2.42619E-005	0.00000E+000	-1.81000E-001	6.50461E-005	10	...........
	12645	252.92	-1.78897E-001	-2.40400E-005	0.00000E+000	-1.79000E-001	6.40453E-005	10	...........
	12647	252.96	-1.77035E-001	-2.39566E-005	0.00000E+000	-1.77000E-001	6.79651E-005	10	...........
	12649	253	-1.75005E-001	-2.39800E-005	0.00000E+000	-1.75000E-001	6.54631E-005	10	...........
	12651	253.04	-1.73096E-001	-2.36981E-005	0.00000E+000	-1.73000E-001	7.34697E-005	10	...........
	12653	253.08	-1.71019E-001	-2.35713E-005	0.00000E+000	-1.71000E-001	6.47959E-005	10	...........
	12655	253.12	-1.69069E-001	-2.34845E-005	0.00000E+000	-1.69000E-001	6.95498E-005	10	...........
	12657	253.16	-1.67032E-001	-2.32910E-005	0.00000E+000	-1.67000E-001	6.90494E-005	10	...........
	12659	253.2	-1.65124E-001	-2.28890E-005	0.00000E+000	-1.65000E-001	6.61303E-005	10	...........
	12661	253.24	-1.62934E-001	-2.29307E-005	0.00000E+000	-1.63000E-001	6.37117E-005	10	...........
	12663	253.28	-1.61075E-001	-2.28807E-005	0.00000E+000	-1.61000E-001	6.81320E-005	10	...........
	12665	253.32	-1.58989E-001	-2.27906E-005	0.00000E+000	-1.59000E-001	6.48793E-005	10	...........
	12667	253.36	-1.57102E-001	-2.25787E-005	0.00000E+000	-1.57000E-001	6.89660E-005	10	...........
	12669	253.4	-1.54989E-001	-2.21767E-005	0.00000E+000	-1.55000E-001	6.22938E-005	10	...........
	12671	253.44	-1.53058E-001	-2.22701E-005	0.00000E+000	-1.53000E-001	6.70477E-005	10	...........
	12673	253.48	-1.51008E-001	-2.17947E-005	0.00000E+000	-1.51000E-001	6.21270E-005	10	...........
	12675	253.52	-1.49098E-001	-2.15745E-005	0.00000E+000	-1.49000E-001	6.98834E-005	10	...........
	12677	253.56	-1.47010E-001	-2.12609E-005	0.00000E+000	-1.47000E-001	6.35449E-005	10	...........
	12679	253.6	-1.45086E-001	-2.16346E-005	0.00000E+000	-1.45000E-001	6.99668E-005	10	...........
	12681	253.64	-1.43050E-001	-2.11075E-005	0.00000E+000	-1.43000E-001	6.47959E-005	10	...........
	12683	253.68	-1.41115E-001	-2.06921E-005	0.00000E+000	-1.41000E-001	6.79651E-005	10	...........
	12685	253.72	-1.38953E-001	-2.04335E-005	0.00000E+000	-1.39000E-001	6.07926E-005	10	...........
	12687	253.76	-1.37064E-001	-2.01600E-005	0.00000E+000	-1.37000E-001	6.92996E-005	10	...........
	12689	253.8	-1.35009E-001	-1.99148E-005	0.00000E+000	-1.35000E-001	6.35449E-005	10	...........
	12691	253.84	-1.33085E-001	-1.99865E-005	0.00000E+000	-1.33000E-001	6.89660E-005	10	...........
	12693	253.88	-1.30957E-001	-1.96078E-005	0.00000E+000	-1.31000E-001	6.59635E-005	10	...........
	12695	253.92	-1.29051E-001	-1.95511E-005	0.00000E+000	-1.29000E-001	7.04672E-005	10	...........
	12697	253.96	-1.27040E-001	-1.92025E-005	0.00000E+000	-1.27000E-001	5.88744E-005	10	...........
	12699	254	-1.25123E-001	-1.91274E-005	0.00000E+000	-1.25000E-001	6.91328E-005	10	...........
	12701	254.04	-1.23056E-001	-1.92142E-005	0.00000E+000	-1.23000E-001	6.71311E-005	10	...........
	12703	254.08	-1.21104E-001	-1.87671E-005	0.00000E+000	-1.21000E-001	7.12178E-005	10	...........
	12705	254.12	-1.19091E-001	-1.89739E-005	0.00000E+000	-1.19000E-001	7.09676E-005	10	...........
	12707	254.16	-1.17141E-001	-1.89072E-005	0.00000E+000	-1.17000E-001	7.03004E-005	10	...........
	12709	254.2	-1.15114E-001	-1.80248E-005	0.00000E+000	-1.15000E-001	6.21270E-005	10	...........
	12711	254.24	-1.13147E-001	-1.84285E-005	0.00000E+000	-1.13000E-001	6.59635E-005	10	...........
	12713	254.28	-1.11022E-001	-1.79547E-005	0.00000E+000	-1.11000E-001	6.44623E-005	10	...........
	12715	254.32	-1.09119E-001	-1.78079E-005	0.00000E+000	-1.09000E-001	6.91328E-005	10	...........
	12717	254.36	-1.06951E-001	-1.77812E-005	0.00000E+000	-1.07000E-001	6.27942E-005	10	...........
	12719	254.4	-1.05084E-001	-1.75410E-005	0.00000E+000	-1.05000E-001	6.86324E-005	10	...........
	12721	254.44	-1.03081E-001	-1.70439E-005	0.00000E+000	-1.03000E-001	6.20436E-005	10	...........
	12723	254.48	-1.01164E-001	-1.74243E-005	0.00000E+000	-1.01000E-001	6.92996E-005	10	...........
	12725	254.52	-9.90878E-002	-1.69422E-005	0.00000E+000	-9.90000E-002	6.67975E-005	10	...........
	12727	254.56	-9.71316E-002	-1.67103E-005	0.00000E+000	-9.70000E-002	7.63887E-005	10	...........
	12729	254.6	-9.51307E-002	-1.68571E-005	0.00000E+000	-9.50000E-002	6.91328E-005	10	...........
	12731	254.64	-9.31658E-002	-1.65135E-005	0.00000E+000	-9.30000E-002	6.67975E-005	10	...........
	12733	254.68	-9.11637E-002	-1.64784E-005	0.00000E+000	-9.10000E-002	6.67975E-005	10	...........
	12735	254.72	-8.91475E-002	-1.59747E-005	0.00000E+000	-8.90000E-002	6.47959E-005	10	...........
	12737	254.76	-8.70490E-002	-1.61598E-005	0.00000E+000	-8.70000E-002	6.52963E-005	10	...........
	12739	254.8	-8.51167E-002	-1.60564E-005	0.00000E+000	-8.50000E-002	6.68809E-005	10	...........
	12741	254.84	-8.30286E-002	-1.60047E-005	0.00000E+000	-8.30000E-002	6.02088E-005	10	...........
	12743	254.88	-8.11014E-002	-1.59029E-005	0.00000E+000	-8.10000E-002	6.82987E-005	10	...........
	12745	254.92	-7.91021E-002	-1.55593E-005	0.00000E+000	-7.90000E-002	6.42121E-005	10	...........
	12747	254.96	-7.71370E-002	-1.54342E-005	0.00000E+000	-7.70000E-002	6.86324E-005	10	...........
	12749	255	-7.50900E-002	-1.54626E-005	0.00000E+000	-7.50000E-002	6.49627E-005	10	...........
	12751	255.04	-7.31238E-002	-1.52574E-005	0.00000E+000	-7.30000E-002	6.84655E-005	10	...........
	12753	255.08	-7.11491E-002	-1.48837E-005	0.00000E+000	-7.10000E-002	6.10428E-005	10	...........
	12755	255.12	-6.91684E-002	-1.45634E-005	0.00000E+000	-6.90000E-002	6.69643E-005	10	...........
	12757	255.16	-6.71606E-002	-1.45768E-005	0.00000E+000	-6.70000E-002	6.02088E-005	10	...........
	12759	255.2	-6.51771E-002	-1.49054E-005	0.00000E+000	-6.50000E-002	6.41287E-005	10	...........
	12761	255.24	-6.29921E-002	-1.44650E-005	0.00000E+000	-6.30000E-002	6.19602E-005	10	...........
	12763	255.28	-6.11924E-002	-1.43266E-005	0.00000E+000	-6.10000E-002	6.40453E-005	10	...........
	12765	255.32	-5.91584E-002	-1.40563E-005	0.00000E+000	-5.90000E-002	6.49627E-005	10	...........
	12767	255.36	-5.71499E-002	-1.38595E-005	0.00000E+000	-5.70000E-002	6.64639E-005	10	...........
	12769	255.4	-5.51374E-002	-1.35492E-005	0.00000E+000	-5.50000E-002	6.52963E-005	10	...........
	12771	255.44	-5.31476E-002	-1.36860E-005	0.00000E+000	-5.30000E-002	7.38866E-005	10	...........
	12773	255.48	-5.10928E-002	-1.31772E-005	0.00000E+000	-5.10000E-002	6.15432E-005	10	...........
	12775	255.52	-4.91317E-002	-1.28186E-005	0.00000E+000	-4.90000E-002	7.19684E-005	10	...........
	12777	255.56	-4.71448E-002	-1.29504E-005	0.00000E+000	-4.70000E-002	6.42955E-005	10	...........
	12779	255.6	-4.51911E-002	-1.28536E-005	0.00000E+000	-4.50000E-002	7.28858E-005	10	...........
	12781	255.64	-4.31664E-002	-1.23999E-005	0.00000E+000	-4.30000E-002	6.46291E-005	10	...........
	12783	255.68	-4.11636E-002	-1.21280E-005	0.00000E+000	-4.10000E-002	7.04672E-005	10	...........
	12785	255.72	-3.91704E-002	-1.21947E-005	0.00000E+000	-3.90000E-002	7.04672E-005	10	...........
	12787	255.76	-3.72045E-002	-1.23665E-005	0.00000E+000	-3.70000E-002	6.43789E-005	10	...........
	12789	255.8	-3.51228E-002	-1.22915E-005	0.00000E+000	-3.50000E-002	6.46291E-005	10	...........
	12791	255.84	-3.31714E-002	-1.22364E-005	0.00000E+000	-3.30000E-002	6.75481E-005	10	...........
	12793	255.88	-3.11232E-002	-1.16259E-005	0.00000E+000	-3.10000E-002	6.11262E-005	10	...........
	12795	255.92	-2.91658E-002	-1.16109E-005	0.00000E+000	-2.90000E-002	6.88826E-005	10	...........
	12797	255.96	-2.71598E-002	-1.13540E-005	0.00000E+000	-2.70000E-002	6.47125E-005	10	...........
	12799	256	-2.51683E-002	-1.13523E-005	0.00000E+000	-2.50000E-002	7.21352E-005	10	...........
	12801	256.04	-2.31778E-002	-1.11755E-005	0.00000E+000	-2.30000E-002	6.33781E-005	10	...........
	12803	256.08	-2.11791E-002	-1.14524E-005	0.00000E+000	-2.10000E-002	6.95498E-005	10	...........
	12805	256.12	-1.91918E-002	-1.10621E-005	0.00000E+000	-1.90000E-002	6.52963E-005	10	...........
	12807	256.16	-1.71894E-002	-1.07618E-005	0.00000E+000	-1.70000E-002	6.83821E-005	10	...........
	12809	256.2	-1.51964E-002	-1.05866E-005	0.00000E+000	-1.50000E-002	6.78817E-005	10	...........
	12811	256.24	-1.32163E-002	-1.05483E-005	0.00000E+000	-1.30000E-002	6.86324E-005	10	...........
	12813	256.28	-1.11748E-002	-1.04732E-005	0.00000E+000	-1.10000E-002	5.42873E-005	10	...........
	12815	256.32	-9.19563E-003	-1.05716E-005	0.00000E+000	-8.99999E-003	6.59635E-005	10	...........
	12817	256.36	-7.19341E-003	-1.07902E-005	0.00000E+000	-6.99998E-003	7.06340E-005	10	...........
	12819	256.4	-5.19978E-003	-1.05316E-005	0.00000E+000	-5.00000E-003	6.69643E-005	10	...........
	12821	256.44	-3.17771E-003	-1.04315E-005	0.00000E+000	-2.99999E-003	6.50461E-005	10	...........
	12823	256.48	-1.18041E-003	-1.02780E-005	0.00000E+000	-9.99987E-004	6.58801E-005	10	...........
	12825	256.52	7.12976E-004	-1.01663E-005	0.00000E+000	1.00002E-003	6.68809E-005	10	...........
	12827	256.56	2.75281E-003	-9.69920E-006	0.00000E+000	3.00001E-003	6.27942E-005	10	...........
	12829	256.6	4.68940E-003	-9.60746E-006	0.00000E+000	5.00001E-003	6.20436E-005	10	...........
	12831	256.64	6.76409E-003	-9.78261E-006	0.00000E+000	7.00001E-003	7.06340E-005	10	...........
	12833	256.68	8.72244E-003	-9.35891E-006	0.00000E+000	9.00000E-003	6.63805E-005	10	...........
	12835	256.72	1.07318E-002	-9.27383E-006	0.00000E+000	1.10000E-002	7.02170E-005	10	...........
	12837	256.76	1.26954E-002	-8.85013E-006	0.00000E+000	1.30000E-002	6.78817E-005	10	...........
	12839	256.8	1.47869E-002	-8.74003E-006	0.00000E+000	1.50000E-002	6.71311E-005	10	...........
	12841	256.84	1.67716E-002	-9.22212E-006	0.00000E+000	1.70000E-002	6.74647E-005	10	...........
	12843	256.88	1.87615E-002	-8.74671E-006	0.00000E+000	1.90000E-002	7.37198E-005	10	...........
	12845	256.92	2.08445E-002	-8.26629E-006	0.00000E+000	2.10000E-002	6.90494E-005	10	...........
	12847	256.96	2.27950E-002	-8.63661E-006	0.00000E+000	2.30000E-002	6.97166E-005	10	...........
	12849	257	2.47777E-002	-8.58824E-006	0.00000E+000	2.50000E-002	6.31278E-005	10	...........
	12851	257.04	2.67529E-002	-8.39974E-006	0.00000E+000	2.70000E-002	6.36283E-005	10	...........
	12853	257.08	2.87248E-002	-8.31466E-006	0.00000E+000	2.90000E-002	6.91328E-005	10	...........
	12855	257.12	3.07791E-002	-7.78420E-006	0.00000E+000	3.10000E-002	6.32947E-005	10	...........
	12857	257.16	3.27321E-002	-8.00773E-006	0.00000E+000	3.30000E-002	6.37951E-005	10	...........
	12859	257.2	3.47383E-002	-7.66410E-006	0.00000E+000	3.50000E-002	7.02170E-005	10	...........
	12861	257.24	3.66851E-002	-7.62573E-006	0.00000E+000	3.70000E-002	6.81320E-005	10	...........
	12863	257.28	3.87602E-002	-7.67411E-006	0.00000E+000	3.90000E-002	6.73813E-005	10	...........
	12865	257.32	4.07039E-002	-7.62907E-006	0.00000E+000	4.10000E-002	6.57133E-005	10	...........
	12867	257.36	4.27600E-002	-7.35883E-006	0.00000E+000	4.30000E-002	6.02088E-005	10	...........
	12869	257.4	4.46960E-002	-7.30045E-006	0.00000E+000	4.50000E-002	6.73813E-005	10	...........
	12871	257.44	4.67838E-002	-6.90510E-006	0.00000E+000	4.70000E-002	6.59635E-005	10	...........
	12873	257.48	4.87418E-002	-6.87341E-006	0.00000E+000	4.90000E-002	6.08760E-005	10	...........
	12875	257.52	5.07484E-002	-6.97183E-006	0.00000E+000	5.10000E-002	7.35530E-005	10	...........
	12877	257.56	5.26981E-002	-7.36050E-006	0.00000E+000	5.30000E-002	6.92996E-005	10	...........
	12879	257.6	5.47751E-002	-6.98684E-006	0.00000E+000	5.50000E-002	6.95498E-005	10	...........
	12881	257.64	5.67224E-002	-6.59984E-006	0.00000E+000	5.70000E-002	7.11344E-005	10	...........
	12883	257.68	5.87214E-002	-6.39966E-006	0.00000E+000	5.90000E-002	6.95498E-005	10	...........
	12885	257.72	6.06895E-002	-6.68825E-006	0.00000E+000	6.10000E-002	6.55465E-005	10	...........
	12887	257.76	6.27240E-002	-6.34962E-006	0.00000E+000	6.30000E-002	7.02170E-005	10	...........
	12889	257.8	6.46930E-002	-5.88088E-006	0.00000E+000	6.50000E-002	6.39619E-005	10	...........
	12891	257.84	6.67580E-002	-5.34708E-006	0.00000E+000	6.70000E-002	5.43707E-005	10	...........
	12893	257.88	6.86860E-002	-5.65401E-006	0.00000E+000	6.90000E-002	6.04590E-005	10	...........
	12895	257.92	7.07726E-002	-5.62566E-006	0.00000E+000	7.10000E-002	5.86242E-005	10	...........
	12897	257.96	7.27285E-002	-5.29871E-006	0.00000E+000	7.30000E-002	6.47959E-005	10	...........
	12899	258	7.47429E-002	-5.51389E-006	0.00000E+000	7.50000E-002	6.27942E-005	10	...........
	12901	258.04	7.66818E-002	-5.26367E-006	0.00000E+000	7.70000E-002	6.53797E-005	10	...........
	12903	258.08	7.87743E-002	-4.87167E-006	0.00000E+000	7.90000E-002	6.68809E-005	10	...........
	12905	258.12	8.07068E-002	-4.46131E-006	0.00000E+000	8.10000E-002	6.52963E-005	10	...........
	12907	258.16	8.27292E-002	-4.88835E-006	0.00000E+000	8.30000E-002	6.71311E-005	10	...........
	12909	258.2	8.46823E-002	-4.38958E-006	0.00000E+000	8.50000E-002	6.47125E-005	10	...........
	12911	258.24	8.67389E-002	-4.31452E-006	0.00000E+000	8.70000E-002	6.57133E-005	10	...........
	12913	258.28	8.86690E-002	-4.38958E-006	0.00000E+000	8.90000E-002	6.95498E-005	10	...........
	12915	258.32	9.07162E-002	-4.54638E-006	0.00000E+000	9.10000E-002	6.74647E-005	10	...........
	12917	258.36	9.26253E-002	-4.74489E-006	0.00000E+000	9.30000E-002	6.73813E-005	10	...........
	12919	258.4	9.47206E-002	-4.79660E-006	0.00000E+000	9.50000E-002	6.57133E-005	10	...........
	12921	258.44	9.66732E-002	-4.61978E-006	0.00000E+000	9.70000E-002	6.12930E-005	10	...........
	12923	258.48	9.87373E-002	-4.39959E-006	0.00000E+000	9.90000E-002	6.12096E-005	10	...........
	12925	258.52	1.00664E-001	-4.42294E-006	0.00000E+000	1.01000E-001	6.37951E-005	10	...........
	12927	258.56	1.02766E-001	-4.31452E-006	0.00000E+000	1.03000E-001	6.68809E-005	10	...........
	12929	258.6	1.04676E-001	-4.17272E-006	0.00000E+000	1.05000E-001	6.83821E-005	10	...........
	12931	258.64	1.06717E-001	-4.02927E-006	0.00000E+000	1.07000E-001	5.93748E-005	10	...........
	12933	258.68	1.08635E-001	-4.07431E-006	0.00000E+000	1.09000E-001	6.61303E-005	10	...........
	12935	258.72	1.10734E-001	-3.82576E-006	0.00000E+000	1.11000E-001	6.55465E-005	10	...........
	12937	258.76	1.12649E-001	-3.94753E-006	0.00000E+000	1.13000E-001	6.75481E-005	10	...........
	12939	258.8	1.14682E-001	-3.98423E-006	0.00000E+000	1.15000E-001	6.24606E-005	10	...........
	12941	258.84	1.16716E-001	-3.74902E-006	0.00000E+000	1.17000E-001	6.76315E-005	10	...........
	12943	258.88	1.18762E-001	-3.84411E-006	0.00000E+000	1.19000E-001	6.45457E-005	10	...........
	12945	258.92	1.20677E-001	-3.37703E-006	0.00000E+000	1.21000E-001	6.39619E-005	10	...........
	12947	258.96	1.22733E-001	-2.97335E-006	0.00000E+000	1.23000E-001	6.78817E-005	10	...........
	12949	259	1.24638E-001	-2.89661E-006	0.00000E+000	1.25000E-001	7.20518E-005	10	...........
	12951	259.04	1.26765E-001	-2.50794E-006	0.00000E+000	1.27000E-001	7.53045E-005	10	...........
	12953	259.08	1.28635E-001	-2.79152E-006	0.00000E+000	1.29000E-001	7.43037E-005	10	...........
	12955	259.12	1.30712E-001	-2.46290E-006	0.00000E+000	1.31000E-001	6.87992E-005	10	...........
	12957	259.16	1.32601E-001	-2.33446E-006	0.00000E+000	1.33000E-001	7.08842E-005	10	...........
	12959	259.2	1.34740E-001	-1.90408E-006	0.00000E+000	1.35000E-001	7.24688E-005	10	...........
	12961	259.24	1.36630E-001	-1.50540E-006	0.00000E+000	1.37000E-001	6.90494E-005	10	...........
	12963	259.28	1.38691E-001	-1.48372E-006	0.00000E+000	1.39000E-001	7.18016E-005	10	...........
	12965	259.32	1.40606E-001	-1.62384E-006	0.00000E+000	1.41000E-001	6.35449E-005	10	...........
	12967	259.36	1.42751E-001	-1.48372E-006	0.00000E+000	1.43000E-001	6.83821E-005	10	...........
	12969	259.4	1.44635E-001	-1.50874E-006	0.00000E+000	1.45000E-001	7.22186E-005	10	...........
	12971	259.44	1.46708E-001	-1.43034E-006	0.00000E+000	1.47000E-001	6.48793E-005	10	...........
	12973	259.48	1.48628E-001	-1.87572E-006	0.00000E+000	1.49000E-001	6.62137E-005	10	...........
	12975	259.52	1.50753E-001	-1.27854E-006	0.00000E+000	1.51000E-001	6.68809E-005	10	...........
	12977	259.56	1.52637E-001	-1.29522E-006	0.00000E+000	1.53000E-001	6.26274E-005	10	...........
	12979	259.6	1.54712E-001	-1.36194E-006	0.00000E+000	1.55000E-001	6.35449E-005	10	...........
	12981	259.64	1.56576E-001	-1.20014E-006	0.00000E+000	1.57000E-001	6.41287E-005	10	...........
	12983	259.68	1.58729E-001	-9.18225E-007	0.00000E+000	1.59000E-001	5.77067E-005	10	...........
	12985	259.72	1.60619E-001	-5.71256E-007	0.00000E+000	1.61000E-001	6.90494E-005	10	...........
	12987	259.76	1.62694E-001	-4.56156E-007	0.00000E+000	1.63000E-001	6.30444E-005	10	...........
	12989	259.8	1.64578E-001	-1.47554E-007	0.00000E+000	1.65000E-001	6.31278E-005	10	...........
	12991	259.84	1.66675E-001	-2.96016E-007	0.00000E+000	1.67000E-001	6.42121E-005	10	...........
	12993	259.88	1.68606E-001	7.58123E-009	0.00000E+000	1.69000E-001	6.11262E-005	10	...........
	12995	259.92	1.70701E-001	-2.91173E-008	0.00000E+000	1.71000E-001	6.82153E-005	10	...........
	12997	259.96	1.72602E-001	2.37782E-007	0.00000E+000	1.73000E-001	6.88826E-005	10	...........
	12999	260	1.74765E-001	3.06175E-007	0.00000E+000	1.75000E-001	6.74647E-005	10	...........
	13000	260.02	1.75620E-001	8.41641E-007	0.00000E+000	1.76000E-001	6.67975E-005	10	...........