File: 20191209/CVTESTKRISTALL3BOX6_2.DTA
EXPLAIN
TAG	CV
TITLE	LABEL	CV	Test &Identifier
DATE	LABEL	12/9/2019	Date
TIME	LABEL	14:06:09	Time
NOTES	NOTES	1	&Notes...

PSTAT	PSTAT	REF600-16093	Potentiostat
VINIT	POTEN	0.00000E+000	T	Initial &E (V)
VLIMIT1	POTEN	8.00000E-001	F	Scan Limit &1 (V)
VLIMIT2	POTEN	-6.00000E-001	F	Scan Limit &2 (V)
VFINAL	POTEN	0.00000E+000	T	Final &E (V)
SCANRATE	QUANT	4.99999E+001	&Scan Rate (mV/s)
STEPSIZE	QUANT	1.00000E+000	St&ep Size (mV)
CYCLES	IQUANT	5	C&ycles (#)
IMODE	SELECTOR	1	I/E Range &Mode
IRANGE	QUANT	1.50000E+001	&Max Current (mA)
AREA	QUANT	1.00000E+000	Electrode &Area (cm^2)
ELECTRODETYPE	SELECTOR	0	Electrode Type
STRIPPING	TOGGLE	F	Used for Stripping
POLARITY	TOGGLE	F	Signal Polarity
CONDIT	TWOPARAM	F	1.50000E+001	0.00000E+000	Conditionin&g	Time(s)	E(V)
DELAY	TWOPARAM	T	5.00000E+000	0.00000E+000	Init. De&lay	Time(s)	Stab.(mV/s)
EQDELAY	QUANT	3.00000E+000	Equil. &Time (s)
IRCOMP	SELECTOR	0	IRCom&p
PFCOR	QUANT	0.00000E+000	PF Corr. (ohm)
SAMPLINGMODE	SELECTOR	2	Sampling &Mode
OCVCURVE	TABLE	20
	Pt	T	Vf	Vm	Ach	Over
	#	s	V vs. Ref.	V	V	bits
	0	0.25	1.39323E-001	1.39323E-001	5.99339E-005	...........
	1	0.5	1.39322E-001	1.39273E-001	6.13505E-005	...........
	2	0.75	1.39318E-001	1.39343E-001	6.42671E-005	...........
	3	1	1.39312E-001	1.39220E-001	6.52255E-005	...........
	4	1.25	1.39303E-001	1.39301E-001	6.86838E-005	...........
	5	1.5	1.39292E-001	1.39297E-001	6.18505E-005	...........
	6	1.75	1.39283E-001	1.39192E-001	6.13089E-005	...........
	7	2	1.39273E-001	1.39210E-001	6.03922E-005	...........
	8	2.25	1.39256E-001	1.39182E-001	6.28922E-005	...........
	9	2.5	1.39233E-001	1.39231E-001	6.45588E-005	...........
	10	2.75	1.39213E-001	1.39110E-001	6.31838E-005	...........
	11	3	1.39198E-001	1.39199E-001	6.17672E-005	...........
	12	3.25	1.39185E-001	1.39207E-001	6.44338E-005	...........
	13	3.5	1.39179E-001	1.39163E-001	6.25588E-005	...........
	14	3.75	1.39180E-001	1.39215E-001	6.11005E-005	...........
	15	4	1.39184E-001	1.39122E-001	6.18922E-005	...........
	16	4.25	1.39183E-001	1.39190E-001	6.20589E-005	...........
	17	4.5	1.39176E-001	1.39103E-001	6.50588E-005	...........
	18	4.75	1.39165E-001	1.39137E-001	6.55588E-005	...........
	19	5	1.39151E-001	1.39118E-001	6.37672E-005	...........
EOC	QUANT	0.139151	Open Circuit (V)
PSTATMODEL	IQUANT	4	Pstat Model
PSTATSECTION	LABEL	REF600-16093	Pstat Section
PSTATSERIALNO	LABEL	16093	Pstat Serial Number
CTRLMODE	IQUANT	1	Control Mode
IESTAB	IQUANT	2	I/E Stability
CASPEED	IQUANT	2	Control Amp Speed
CONVENTION	IQUANT	1	Current Convention
ICHRANGE	IQUANT	2	Ich Range
ICHRANGEMODE	TOGGLE	F	Ich Auto Range
ICHOFFSETENABLE	TOGGLE	F	Ich Offset Enable
ICHOFFSET	QUANT	0	Ich Offset (V)
ICHFILTER	IQUANT	2	Ich Filter
VCHRANGE	IQUANT	2	Vch Range
VCHRANGEMODE	TOGGLE	F	Vch Auto Range
VCHOFFSETENABLE	TOGGLE	F	Vch Offset Enable
VCHOFFSET	QUANT	0	Vch Offset (V)
VCHFILTER	IQUANT	2	Vch Filter
ACHRANGE	IQUANT	2	Ach Range
ACHOFFSETENABLE	TOGGLE	F	Ach Offset Enable
ACHOFFSET	QUANT	0	Ach Offset (V)
ACHFILTER	IQUANT	1	Ach Filter
IERANGELOWERLIMIT	IQUANT	1	I/E Range Lower Limit
IERANGEMODE	TOGGLE	F	I/E AutoRange
IERANGE	IQUANT	10	I/E Range
POSFEEDENABLE	TOGGLE	F	Positive Feedback IR Comp
POSFEEDRESISTANCE	QUANT	0	Positive Feedback Resistance (ohm)
ACHSELECT	IQUANT	0	Ach Select
CABLEID	IQUANT	14	Cable ID
DCCALDATE	LABEL	11/5/2019	DC Calibration Date
ACCALDATE	LABEL		AC Calibration Date
THERMOSELECT	IQUANT	1	Thermo Select
FRAMEWORKVERSION	QUANT	6.12	Framework Version
INSTRUMENTVERSION	LABEL	3.11	Instrument Version
CURVE1	TABLE
	Pt	T	Vf	Im	Vu	Sig	Ach	IERange	Over
	#	s	V vs. Ref.	A	V	V	V	#	bits
	0	0.02	1.38664E-001	-2.64322E-007	0.00000E+000	1.39150E-001	8.59799E-005	10	...........
	4	0.1	1.42746E-001	9.03361E-007	0.00000E+000	1.43150E-001	9.01500E-005	10	...........
	8	0.18	1.46596E-001	9.06697E-007	0.00000E+000	1.47150E-001	8.91491E-005	10	...........
	12	0.26	1.50755E-001	6.68156E-007	0.00000E+000	1.51150E-001	8.85653E-005	10	...........
	16	0.34	1.54603E-001	8.36637E-007	0.00000E+000	1.55150E-001	8.95661E-005	10	...........
	20	0.42	1.58742E-001	1.04682E-006	0.00000E+000	1.59150E-001	9.10674E-005	10	...........
	24	0.5	1.62645E-001	1.22364E-006	0.00000E+000	1.63150E-001	9.17346E-005	10	...........
	28	0.58	1.66702E-001	1.18694E-006	0.00000E+000	1.67150E-001	9.29856E-005	10	...........
	32	0.66	1.70590E-001	1.15525E-006	0.00000E+000	1.71150E-001	8.94827E-005	10	...........
	36	0.74	1.74766E-001	1.22864E-006	0.00000E+000	1.75150E-001	8.45620E-005	10	...........
	40	0.82	1.78632E-001	1.22698E-006	0.00000E+000	1.79150E-001	8.33944E-005	10	...........
	44	0.9	1.82751E-001	1.73909E-006	0.00000E+000	1.83150E-001	8.68139E-005	10	...........
	48	0.98	1.86609E-001	1.45217E-006	0.00000E+000	1.87150E-001	9.25686E-005	10	...........
	52	1.06	1.90683E-001	1.39712E-006	0.00000E+000	1.91150E-001	8.75645E-005	10	...........
	56	1.14	1.94584E-001	1.52557E-006	0.00000E+000	1.95150E-001	8.77313E-005	10	...........
	60	1.22	1.98749E-001	1.88922E-006	0.00000E+000	1.99150E-001	8.58965E-005	10	...........
	64	1.3	2.02599E-001	2.26455E-006	0.00000E+000	2.03150E-001	9.15678E-005	10	...........
	68	1.38	2.06748E-001	1.71240E-006	0.00000E+000	2.07150E-001	8.96496E-005	10	...........
	72	1.46	2.10585E-001	1.79747E-006	0.00000E+000	2.11150E-001	9.86569E-005	10	...........
	76	1.54	2.14660E-001	1.62399E-006	0.00000E+000	2.15150E-001	9.52374E-005	10	...........
	80	1.62	2.18533E-001	1.96595E-006	0.00000E+000	2.19150E-001	9.45702E-005	10	...........
	84	1.7	2.22754E-001	1.75577E-006	0.00000E+000	2.23150E-001	9.24018E-005	10	...........
	88	1.78	2.26577E-001	2.30792E-006	0.00000E+000	2.27150E-001	9.28188E-005	10	...........
	92	1.86	2.30748E-001	2.04435E-006	0.00000E+000	2.31150E-001	9.25686E-005	10	...........
	96	1.94	2.34575E-001	2.30458E-006	0.00000E+000	2.35150E-001	9.66553E-005	10	...........
	100	2.02	2.38684E-001	1.85252E-006	0.00000E+000	2.39150E-001	8.84819E-005	10	...........
	104	2.1	2.42558E-001	2.15612E-006	0.00000E+000	2.43150E-001	9.40698E-005	10	...........
	108	2.18	2.46707E-001	2.18448E-006	0.00000E+000	2.47150E-001	8.65637E-005	10	...........
	112	2.26	2.50543E-001	2.28790E-006	0.00000E+000	2.51150E-001	8.77313E-005	10	...........
	116	2.34	2.54725E-001	2.63320E-006	0.00000E+000	2.55150E-001	8.28106E-005	10	...........
	120	2.42	2.58572E-001	3.19369E-006	0.00000E+000	2.59150E-001	9.12342E-005	10	...........
	124	2.5	2.62687E-001	2.44971E-006	0.00000E+000	2.63150E-001	8.07256E-005	10	...........
	128	2.58	2.66567E-001	2.66823E-006	0.00000E+000	2.67150E-001	9.06504E-005	10	...........
	132	2.66	2.70746E-001	2.46305E-006	0.00000E+000	2.71150E-001	8.80649E-005	10	...........
	136	2.74	2.74569E-001	2.83171E-006	0.00000E+000	2.75150E-001	8.73977E-005	10	...........
	140	2.82	2.78732E-001	2.86173E-006	0.00000E+000	2.79150E-001	9.01500E-005	10	...........
	144	2.9	2.82558E-001	2.91178E-006	0.00000E+000	2.83150E-001	8.54795E-005	10	...........
	148	2.98	2.86675E-001	3.18201E-006	0.00000E+000	2.87150E-001	8.60633E-005	10	...........
	152	3.06	2.90548E-001	3.49061E-006	0.00000E+000	2.91150E-001	8.88155E-005	10	...........
	156	3.14	2.94585E-001	3.79421E-006	0.00000E+000	2.95150E-001	9.37362E-005	10	...........
	160	3.22	2.98560E-001	3.74917E-006	0.00000E+000	2.99150E-001	9.06504E-005	10	...........
	164	3.3	3.02745E-001	4.07279E-006	0.00000E+000	3.03150E-001	8.49791E-005	10	...........
	168	3.38	3.06563E-001	3.96436E-006	0.00000E+000	3.07150E-001	9.04002E-005	10	...........
	172	3.46	3.10662E-001	4.14785E-006	0.00000E+000	3.11150E-001	9.21516E-005	10	...........
	176	3.54	3.14517E-001	4.37138E-006	0.00000E+000	3.15150E-001	9.05670E-005	10	...........
	180	3.62	3.18540E-001	4.55154E-006	0.00000E+000	3.19150E-001	9.12342E-005	10	...........
	184	3.7	3.22554E-001	4.93187E-006	0.00000E+000	3.23150E-001	8.94827E-005	10	...........
	188	3.78	3.26701E-001	4.94188E-006	0.00000E+000	3.27150E-001	8.62301E-005	10	...........
	192	3.86	3.30556E-001	4.95856E-006	0.00000E+000	3.31150E-001	9.09006E-005	10	...........
	196	3.94	3.34694E-001	4.98858E-006	0.00000E+000	3.35150E-001	8.63135E-005	10	...........
	200	4.02	3.38540E-001	5.58410E-006	0.00000E+000	3.39150E-001	8.93159E-005	10	...........
	204	4.1	3.42553E-001	5.82765E-006	0.00000E+000	3.43150E-001	8.50625E-005	10	...........
	208	4.18	3.46460E-001	5.89938E-006	0.00000E+000	3.47150E-001	9.14010E-005	10	...........
	212	4.26	3.50537E-001	6.40982E-006	0.00000E+000	3.51150E-001	8.57297E-005	10	...........
	216	4.34	3.54539E-001	6.31474E-006	0.00000E+000	3.55150E-001	8.91491E-005	10	...........
	220	4.42	3.58658E-001	7.10376E-006	0.00000E+000	3.59150E-001	8.88155E-005	10	...........
	224	4.5	3.62538E-001	7.01034E-006	0.00000E+000	3.63150E-001	9.14844E-005	10	...........
	228	4.58	3.66563E-001	6.74345E-006	0.00000E+000	3.67150E-001	8.66471E-005	10	...........
	232	4.66	3.70500E-001	6.80350E-006	0.00000E+000	3.71150E-001	8.61467E-005	10	...........
	236	4.74	3.74619E-001	7.69928E-006	0.00000E+000	3.75150E-001	8.42284E-005	10	...........
	240	4.82	3.78504E-001	7.82939E-006	0.00000E+000	3.79150E-001	8.61467E-005	10	...........
	244	4.9	3.82616E-001	8.57671E-006	0.00000E+000	3.83150E-001	8.47289E-005	10	...........
	248	4.98	3.86523E-001	8.90199E-006	0.00000E+000	3.87150E-001	8.12260E-005	10	...........
	252	5.06	3.90535E-001	9.03711E-006	0.00000E+000	3.91150E-001	8.19766E-005	10	...........
	256	5.14	3.94500E-001	9.09383E-006	0.00000E+000	3.95150E-001	8.26438E-005	10	...........
	260	5.22	3.98657E-001	9.93789E-006	0.00000E+000	3.99150E-001	8.26438E-005	10	...........
	264	5.3	4.02515E-001	1.00497E-005	0.00000E+000	4.03150E-001	8.38114E-005	10	...........
	268	5.38	4.06595E-001	1.04950E-005	0.00000E+000	4.07150E-001	8.18098E-005	10	...........
	272	5.46	4.10452E-001	1.13441E-005	0.00000E+000	4.11150E-001	8.69807E-005	10	...........
	276	5.54	4.14442E-001	1.21982E-005	0.00000E+000	4.15150E-001	8.42284E-005	10	...........
	280	5.62	4.18459E-001	1.23116E-005	0.00000E+000	4.19150E-001	8.14762E-005	10	...........
	284	5.7	4.22416E-001	1.29105E-005	0.00000E+000	4.23150E-001	8.13928E-005	10	...........
	288	5.78	4.26484E-001	1.35294E-005	0.00000E+000	4.27150E-001	9.09840E-005	10	...........
	292	5.86	4.30601E-001	1.39247E-005	0.00000E+000	4.31150E-001	8.75645E-005	10	...........
	296	5.94	4.34475E-001	1.46904E-005	0.00000E+000	4.35150E-001	8.83985E-005	10	...........
	300	6.02	4.38464E-001	1.56128E-005	0.00000E+000	4.39150E-001	9.05670E-005	10	...........
	304	6.1	4.42431E-001	1.62484E-005	0.00000E+000	4.43150E-001	8.88155E-005	10	...........
	308	6.18	4.46395E-001	1.68573E-005	0.00000E+000	4.47150E-001	8.71475E-005	10	...........
	312	6.26	4.50435E-001	1.69290E-005	0.00000E+000	4.51150E-001	8.23102E-005	10	...........
	316	6.34	4.54504E-001	1.77097E-005	0.00000E+000	4.55150E-001	8.08924E-005	10	...........
	320	6.42	4.58447E-001	1.86138E-005	0.00000E+000	4.59150E-001	8.38948E-005	10	...........
	324	6.5	4.62475E-001	1.93611E-005	0.00000E+000	4.63150E-001	8.96496E-005	10	...........
	328	6.58	4.66426E-001	2.03119E-005	0.00000E+000	4.67150E-001	8.84819E-005	10	...........
	332	6.66	4.70399E-001	2.07790E-005	0.00000E+000	4.71150E-001	8.72309E-005	10	...........
	336	6.74	4.74340E-001	2.15096E-005	0.00000E+000	4.75150E-001	7.90576E-005	10	...........
	340	6.82	4.78420E-001	2.27974E-005	0.00000E+000	4.79150E-001	8.56463E-005	10	...........
	344	6.9	4.82443E-001	2.35998E-005	0.00000E+000	4.83150E-001	8.85653E-005	10	...........
	348	6.98	4.86459E-001	2.42937E-005	0.00000E+000	4.87150E-001	8.58131E-005	10	...........
	352	7.06	4.90418E-001	2.48275E-005	0.00000E+000	4.91150E-001	8.76479E-005	10	...........
	356	7.14	4.94391E-001	2.57917E-005	0.00000E+000	4.95150E-001	8.72309E-005	10	...........
	360	7.22	4.98377E-001	2.64973E-005	0.00000E+000	4.99150E-001	8.95661E-005	10	...........
	364	7.3	5.02408E-001	2.78185E-005	0.00000E+000	5.03150E-001	8.88155E-005	10	...........
	368	7.38	5.06393E-001	2.87326E-005	0.00000E+000	5.07150E-001	8.82317E-005	10	...........
	372	7.46	5.10360E-001	2.93248E-005	0.00000E+000	5.11150E-001	8.73977E-005	10	...........
	376	7.54	5.14373E-001	3.01288E-005	0.00000E+000	5.15150E-001	8.66471E-005	10	...........
	380	7.62	5.18355E-001	3.09612E-005	0.00000E+000	5.19150E-001	8.30608E-005	10	...........
	384	7.7	5.22367E-001	3.21172E-005	0.00000E+000	5.23150E-001	8.73143E-005	10	...........
	388	7.78	5.26589E-001	3.28812E-005	0.00000E+000	5.27150E-001	9.09006E-005	10	...........
	392	7.86	5.30382E-001	3.37720E-005	0.00000E+000	5.31150E-001	9.09006E-005	10	...........
	396	7.94	5.34381E-001	3.38721E-005	0.00000E+000	5.35150E-001	9.02334E-005	10	...........
	400	8.02	5.38340E-001	3.44776E-005	0.00000E+000	5.39150E-001	8.48123E-005	10	...........
	404	8.1	5.42310E-001	3.57537E-005	0.00000E+000	5.43150E-001	7.98082E-005	10	...........
	408	8.18	5.46351E-001	3.64843E-005	0.00000E+000	5.47150E-001	8.23102E-005	10	...........
	412	8.26	5.50302E-001	3.73417E-005	0.00000E+000	5.51150E-001	8.63135E-005	10	...........
	416	8.34	5.54351E-001	3.81274E-005	0.00000E+000	5.55150E-001	8.68973E-005	10	...........
	420	8.42	5.58367E-001	3.87180E-005	0.00000E+000	5.59150E-001	8.23936E-005	10	...........
	424	8.5	5.62358E-001	3.92434E-005	0.00000E+000	5.63150E-001	8.70641E-005	10	...........
	428	8.58	5.66325E-001	4.02443E-005	0.00000E+000	5.67150E-001	8.61467E-005	10	...........
	432	8.66	5.70339E-001	4.08331E-005	0.00000E+000	5.71150E-001	9.37362E-005	10	...........
	436	8.74	5.74294E-001	4.15804E-005	0.00000E+000	5.75150E-001	8.78981E-005	10	...........
	440	8.82	5.78323E-001	4.19574E-005	0.00000E+000	5.79150E-001	8.58965E-005	10	...........
	444	8.9	5.82338E-001	4.29316E-005	0.00000E+000	5.83150E-001	8.83151E-005	10	...........
	448	8.98	5.86354E-001	4.37357E-005	0.00000E+000	5.87150E-001	9.00666E-005	10	...........
	452	9.06	5.90316E-001	4.42661E-005	0.00000E+000	5.91150E-001	8.63135E-005	10	...........
	456	9.14	5.94314E-001	4.53454E-005	0.00000E+000	5.95150E-001	8.75645E-005	10	...........
	460	9.22	5.98282E-001	4.56140E-005	0.00000E+000	5.99150E-001	8.18098E-005	10	...........
	464	9.3	6.02258E-001	4.59843E-005	0.00000E+000	6.03150E-001	8.81483E-005	10	...........
	468	9.38	6.06286E-001	4.65598E-005	0.00000E+000	6.07150E-001	8.78147E-005	10	...........
	472	9.46	6.10325E-001	4.78109E-005	0.00000E+000	6.11150E-001	8.28940E-005	10	...........
	476	9.54	6.14287E-001	4.85582E-005	0.00000E+000	6.15150E-001	8.07256E-005	10	...........
	480	9.62	6.18264E-001	4.93739E-005	0.00000E+000	6.19150E-001	9.15678E-005	10	...........
	484	9.7	6.22249E-001	4.99361E-005	0.00000E+000	6.23150E-001	9.46536E-005	10	...........
	488	9.78	6.26241E-001	5.10670E-005	0.00000E+000	6.27150E-001	8.95661E-005	10	...........
	492	9.86	6.30242E-001	5.13673E-005	0.00000E+000	6.31150E-001	9.06504E-005	10	...........
	496	9.94	6.34268E-001	5.16392E-005	0.00000E+000	6.35150E-001	9.58213E-005	10	...........
	500	10.02	6.38247E-001	5.20963E-005	0.00000E+000	6.39150E-001	9.57379E-005	10	...........
	504	10.1	6.42249E-001	5.25450E-005	0.00000E+000	6.43150E-001	9.04836E-005	10	...........
	508	10.18	6.46208E-001	5.29220E-005	0.00000E+000	6.47150E-001	9.48205E-005	10	...........
	512	10.26	6.50227E-001	5.37460E-005	0.00000E+000	6.51150E-001	9.10674E-005	10	...........
	516	10.34	6.54160E-001	5.42498E-005	0.00000E+000	6.55150E-001	9.11508E-005	10	...........
	520	10.42	6.58243E-001	5.44283E-005	0.00000E+000	6.59150E-001	8.89823E-005	10	...........
	524	10.5	6.62209E-001	5.51089E-005	0.00000E+000	6.63150E-001	8.79815E-005	10	...........
	528	10.58	6.66223E-001	5.51039E-005	0.00000E+000	6.67150E-001	8.95661E-005	10	...........
	532	10.66	6.70184E-001	5.56310E-005	0.00000E+000	6.71150E-001	9.64885E-005	10	...........
	536	10.74	6.74224E-001	5.65134E-005	0.00000E+000	6.75150E-001	9.48205E-005	10	...........
	540	10.82	6.78168E-001	5.65535E-005	0.00000E+000	6.79150E-001	8.68139E-005	10	...........
	544	10.9	6.82230E-001	5.68087E-005	0.00000E+000	6.83150E-001	9.11508E-005	10	...........
	548	10.98	6.86226E-001	5.64968E-005	0.00000E+000	6.87150E-001	8.93159E-005	10	...........
	552	11.06	6.90236E-001	5.70339E-005	0.00000E+000	6.91150E-001	8.91491E-005	10	...........
	556	11.14	6.94171E-001	5.74176E-005	0.00000E+000	6.95150E-001	9.19014E-005	10	...........
	560	11.22	6.98208E-001	5.79397E-005	0.00000E+000	6.99150E-001	9.60715E-005	10	...........
	564	11.3	7.02139E-001	5.79180E-005	0.00000E+000	7.03150E-001	9.44868E-005	10	...........
	568	11.38	7.06186E-001	5.83050E-005	0.00000E+000	7.07150E-001	9.50707E-005	10	...........
	572	11.46	7.10174E-001	5.77662E-005	0.00000E+000	7.11150E-001	9.59881E-005	10	...........
	576	11.54	7.14217E-001	5.84785E-005	0.00000E+000	7.15150E-001	8.96496E-005	10	...........
	580	11.62	7.18161E-001	5.82183E-005	0.00000E+000	7.19150E-001	9.54043E-005	10	...........
	584	11.7	7.22187E-001	5.88355E-005	0.00000E+000	7.23150E-001	9.24852E-005	10	...........
	588	11.78	7.26119E-001	5.85469E-005	0.00000E+000	7.27150E-001	9.77395E-005	10	...........
	592	11.86	7.30143E-001	5.83684E-005	0.00000E+000	7.31150E-001	9.99913E-005	10	...........
	596	11.94	7.34165E-001	5.84668E-005	0.00000E+000	7.35150E-001	9.59047E-005	10	...........
	600	12.02	7.38192E-001	5.87521E-005	0.00000E+000	7.39150E-001	9.54877E-005	10	...........
	604	12.1	7.42167E-001	5.84818E-005	0.00000E+000	7.43150E-001	9.53209E-005	10	...........
	608	12.18	7.46172E-001	5.89622E-005	0.00000E+000	7.47150E-001	9.99079E-005	10	...........
	612	12.26	7.50144E-001	5.87454E-005	0.00000E+000	7.51150E-001	9.64885E-005	10	...........
	616	12.34	7.54139E-001	5.91557E-005	0.00000E+000	7.55150E-001	9.25686E-005	10	...........
	620	12.42	7.58110E-001	5.94977E-005	0.00000E+000	7.59150E-001	9.73225E-005	10	...........
	624	12.5	7.62165E-001	5.99031E-005	0.00000E+000	7.63150E-001	9.58213E-005	10	...........
	628	12.58	7.66154E-001	5.97246E-005	0.00000E+000	7.67150E-001	8.61467E-005	10	...........
	632	12.66	7.70169E-001	6.04068E-005	0.00000E+000	7.71150E-001	9.82399E-005	10	...........
	636	12.74	7.74117E-001	6.07505E-005	0.00000E+000	7.75150E-001	9.59881E-005	10	...........
	640	12.82	7.78150E-001	6.07338E-005	0.00000E+000	7.79150E-001	9.72391E-005	10	...........
	644	12.9	7.82074E-001	6.09106E-005	0.00000E+000	7.83150E-001	9.19014E-005	10	...........
	648	12.98	7.86170E-001	6.13944E-005	0.00000E+000	7.87150E-001	9.33192E-005	10	...........
	652	13.06	7.90145E-001	6.12993E-005	0.00000E+000	7.91150E-001	9.38196E-005	10	...........
	656	13.14	7.94148E-001	6.15662E-005	0.00000E+000	7.95150E-001	9.30690E-005	10	...........
	660	13.22	7.98115E-001	6.20616E-005	0.00000E+000	7.99150E-001	9.86569E-005	10	...........
	664	13.3	7.96162E-001	5.58712E-005	0.00000E+000	7.97150E-001	8.69807E-005	10	...........
	668	13.38	7.92294E-001	4.96208E-005	0.00000E+000	7.93150E-001	8.43118E-005	10	...........
	672	13.46	7.88143E-001	4.46598E-005	0.00000E+000	7.89150E-001	9.10674E-005	10	...........
	676	13.54	7.84294E-001	4.01842E-005	0.00000E+000	7.85150E-001	8.91491E-005	10	...........
	680	13.62	7.80144E-001	3.66895E-005	0.00000E+000	7.81150E-001	8.38114E-005	10	...........
	684	13.7	7.76248E-001	3.34767E-005	0.00000E+000	7.77150E-001	8.93159E-005	10	...........
	688	13.78	7.72177E-001	3.04925E-005	0.00000E+000	7.73150E-001	9.24852E-005	10	...........
	692	13.86	7.68315E-001	2.82472E-005	0.00000E+000	7.69150E-001	8.48957E-005	10	...........
	696	13.94	7.64179E-001	2.63672E-005	0.00000E+000	7.65150E-001	8.90657E-005	10	...........
	700	14.02	7.60187E-001	2.37916E-005	0.00000E+000	7.61150E-001	9.24018E-005	10	...........
	704	14.1	7.56124E-001	2.21352E-005	0.00000E+000	7.57150E-001	8.34778E-005	10	...........
	708	14.18	7.52214E-001	2.03069E-005	0.00000E+000	7.53150E-001	8.14762E-005	10	...........
	712	14.26	7.48176E-001	1.91526E-005	0.00000E+000	7.49150E-001	8.74811E-005	10	...........
	716	14.34	7.44327E-001	1.74277E-005	0.00000E+000	7.45150E-001	8.07256E-005	10	...........
	720	14.42	7.40183E-001	1.60749E-005	0.00000E+000	7.41150E-001	8.53127E-005	10	...........
	724	14.5	7.36344E-001	1.56012E-005	0.00000E+000	7.37150E-001	7.98916E-005	10	...........
	728	14.58	7.32180E-001	1.44435E-005	0.00000E+000	7.33150E-001	8.55629E-005	10	...........
	732	14.66	7.28193E-001	1.35727E-005	0.00000E+000	7.29150E-001	9.09840E-005	10	...........
	736	14.74	7.24156E-001	1.25635E-005	0.00000E+000	7.25150E-001	9.09006E-005	10	...........
	740	14.82	7.20318E-001	1.18395E-005	0.00000E+000	7.21150E-001	9.44034E-005	10	...........
	744	14.9	7.16190E-001	1.07236E-005	0.00000E+000	7.17150E-001	8.79815E-005	10	...........
	748	14.98	7.12367E-001	1.04784E-005	0.00000E+000	7.13150E-001	8.93993E-005	10	...........
	752	15.06	7.08183E-001	1.00413E-005	0.00000E+000	7.09150E-001	8.48123E-005	10	...........
	756	15.14	7.04240E-001	9.47749E-006	0.00000E+000	7.05150E-001	8.60633E-005	10	...........
	760	15.22	7.00187E-001	8.54835E-006	0.00000E+000	7.01150E-001	8.73977E-005	10	...........
	764	15.3	6.96313E-001	8.22140E-006	0.00000E+000	6.97150E-001	8.54795E-005	10	...........
	768	15.38	6.92182E-001	7.76767E-006	0.00000E+000	6.93150E-001	8.58965E-005	10	...........
	772	15.46	6.88361E-001	7.31227E-006	0.00000E+000	6.89150E-001	8.25604E-005	10	...........
	776	15.54	6.84190E-001	7.07373E-006	0.00000E+000	6.85150E-001	8.81483E-005	10	...........
	780	15.62	6.80362E-001	6.51158E-006	0.00000E+000	6.81150E-001	9.04836E-005	10	...........
	784	15.7	6.76211E-001	5.88436E-006	0.00000E+000	6.77150E-001	9.14844E-005	10	...........
	788	15.78	6.72327E-001	5.84266E-006	0.00000E+000	6.73150E-001	8.43953E-005	10	...........
	792	15.86	6.68201E-001	5.04697E-006	0.00000E+000	6.69150E-001	9.19848E-005	10	...........
	796	15.94	6.64351E-001	4.70334E-006	0.00000E+000	6.65150E-001	9.26520E-005	10	...........
	800	16.02	6.60186E-001	4.62493E-006	0.00000E+000	6.61150E-001	9.26520E-005	10	...........
	804	16.1	6.56346E-001	3.90931E-006	0.00000E+000	6.57150E-001	9.10674E-005	10	...........
	808	16.18	6.52211E-001	3.96603E-006	0.00000E+000	6.53150E-001	9.29022E-005	10	...........
	812	16.26	6.48326E-001	3.72749E-006	0.00000E+000	6.49150E-001	9.42366E-005	10	...........
	816	16.34	6.44209E-001	4.00106E-006	0.00000E+000	6.45150E-001	8.88155E-005	10	...........
	820	16.42	6.40370E-001	3.51730E-006	0.00000E+000	6.41150E-001	8.76479E-005	10	...........
	824	16.5	6.36208E-001	2.98684E-006	0.00000E+000	6.37150E-001	8.82317E-005	10	...........
	828	16.58	6.32370E-001	2.87174E-006	0.00000E+000	6.33150E-001	8.99832E-005	10	...........
	832	16.66	6.28168E-001	2.36463E-006	0.00000E+000	6.29150E-001	9.44868E-005	10	...........
	836	16.74	6.24325E-001	2.72828E-006	0.00000E+000	6.25150E-001	8.87321E-005	10	...........
	840	16.82	6.20217E-001	2.46806E-006	0.00000E+000	6.21150E-001	9.00666E-005	10	...........
	844	16.9	6.16367E-001	1.73575E-006	0.00000E+000	6.17150E-001	8.80649E-005	10	...........
	848	16.98	6.12245E-001	1.97429E-006	0.00000E+000	6.13150E-001	9.17346E-005	10	...........
	852	17.06	6.08368E-001	1.56727E-006	0.00000E+000	6.09150E-001	9.33192E-005	10	...........
	856	17.14	6.04210E-001	1.51556E-006	0.00000E+000	6.05150E-001	9.33192E-005	10	...........
	860	17.22	6.00317E-001	1.72408E-006	0.00000E+000	6.01150E-001	8.93159E-005	10	...........
	864	17.3	5.96270E-001	1.14023E-006	0.00000E+000	5.97150E-001	9.40698E-005	10	...........
	868	17.38	5.92377E-001	1.05850E-006	0.00000E+000	5.93150E-001	9.23184E-005	10	...........
	872	17.46	5.88276E-001	3.24524E-007	0.00000E+000	5.89150E-001	9.20682E-005	10	...........
	876	17.54	5.84393E-001	6.19781E-007	0.00000E+000	5.85150E-001	9.03168E-005	10	...........
	880	17.62	5.80223E-001	1.54376E-007	0.00000E+000	5.81150E-001	9.50707E-005	10	...........
	884	17.7	5.76349E-001	6.79833E-007	0.00000E+000	5.77150E-001	9.10674E-005	10	...........
	888	17.78	5.72298E-001	4.12934E-007	0.00000E+000	5.73150E-001	9.31524E-005	10	...........
	892	17.86	5.68376E-001	2.29441E-007	0.00000E+000	5.69150E-001	9.42366E-005	10	...........
	896	17.94	5.64254E-001	-1.85921E-007	0.00000E+000	5.65150E-001	9.09840E-005	10	...........
	900	18.02	5.60381E-001	5.34707E-007	0.00000E+000	5.61150E-001	8.86487E-005	10	...........
	904	18.1	5.56238E-001	1.76061E-007	0.00000E+000	5.57150E-001	9.23184E-005	10	...........
	908	18.18	5.52365E-001	-2.02602E-007	0.00000E+000	5.53150E-001	8.77313E-005	10	...........
	912	18.26	5.48314E-001	-2.22619E-007	0.00000E+000	5.49150E-001	7.88907E-005	10	...........
	916	18.34	5.44374E-001	-6.68007E-007	0.00000E+000	5.45150E-001	8.87321E-005	10	...........
	920	18.42	5.40273E-001	-7.21387E-007	0.00000E+000	5.41150E-001	9.39864E-005	10	...........
	924	18.5	5.36408E-001	-4.32802E-007	0.00000E+000	5.37150E-001	8.94827E-005	10	...........
	928	18.58	5.32282E-001	-6.84688E-007	0.00000E+000	5.33150E-001	8.58965E-005	10	...........
	932	18.66	5.28398E-001	-7.71430E-007	0.00000E+000	5.29150E-001	9.02334E-005	10	...........
	936	18.74	5.24316E-001	-4.92854E-007	0.00000E+000	5.25150E-001	9.26520E-005	10	...........
	940	18.82	5.20383E-001	-1.22849E-006	0.00000E+000	5.21150E-001	9.13176E-005	10	...........
	944	18.9	5.16319E-001	-1.00163E-006	0.00000E+000	5.17150E-001	8.95661E-005	10	...........
	948	18.98	5.12396E-001	-9.76609E-007	0.00000E+000	5.13150E-001	8.93993E-005	10	...........
	952	19.06	5.08324E-001	-1.39864E-006	0.00000E+000	5.09150E-001	8.72309E-005	10	...........
	956	19.14	5.04395E-001	-1.83402E-006	0.00000E+000	5.05150E-001	8.83151E-005	10	...........
	960	19.22	5.00277E-001	-2.13262E-006	0.00000E+000	5.01150E-001	8.84819E-005	10	...........
	964	19.3	4.96408E-001	-1.67388E-006	0.00000E+000	4.97150E-001	8.61467E-005	10	...........
	968	19.38	4.92357E-001	-1.73227E-006	0.00000E+000	4.93150E-001	9.16512E-005	10	...........
	972	19.46	4.88433E-001	-1.66721E-006	0.00000E+000	4.89150E-001	9.34026E-005	10	...........
	976	19.54	4.84385E-001	-1.96247E-006	0.00000E+000	4.85150E-001	8.73977E-005	10	...........
	980	19.62	4.80445E-001	-1.57713E-006	0.00000E+000	4.81150E-001	9.00666E-005	10	...........
	984	19.7	4.76296E-001	-2.09091E-006	0.00000E+000	4.77150E-001	9.33192E-005	10	...........
	988	19.78	4.72414E-001	-1.66387E-006	0.00000E+000	4.73150E-001	9.48205E-005	10	...........
	992	19.86	4.68396E-001	-1.72059E-006	0.00000E+000	4.69150E-001	9.35694E-005	10	...........
	996	19.94	4.64449E-001	-2.43121E-006	0.00000E+000	4.65150E-001	9.03168E-005	10	...........
	1000	20.02	4.60397E-001	-2.60303E-006	0.00000E+000	4.61150E-001	8.90657E-005	10	...........
	1004	20.1	4.56455E-001	-2.83489E-006	0.00000E+000	4.57150E-001	9.39030E-005	10	...........
	1008	20.18	4.52327E-001	-2.58301E-006	0.00000E+000	4.53150E-001	9.51540E-005	10	...........
	1012	20.26	4.48441E-001	-3.09012E-006	0.00000E+000	4.49150E-001	8.68973E-005	10	...........
	1016	20.34	4.44391E-001	-3.09345E-006	0.00000E+000	4.45150E-001	8.73977E-005	10	...........
	1020	20.42	4.40453E-001	-3.42708E-006	0.00000E+000	4.41150E-001	9.94909E-005	10	...........
	1024	20.5	4.36387E-001	-2.97335E-006	0.00000E+000	4.37150E-001	9.89905E-005	10	...........
	1028	20.58	4.32491E-001	-3.72233E-006	0.00000E+000	4.33150E-001	9.19848E-005	10	...........
	1032	20.66	4.28416E-001	-3.73234E-006	0.00000E+000	4.29150E-001	9.09006E-005	10	...........
	1036	20.74	4.24486E-001	-4.03427E-006	0.00000E+000	4.25150E-001	9.01500E-005	10	...........
	1040	20.82	4.20424E-001	-4.23445E-006	0.00000E+000	4.21150E-001	9.31524E-005	10	...........
	1044	20.9	4.16466E-001	-4.53971E-006	0.00000E+000	4.17150E-001	9.16512E-005	10	...........
	1048	20.98	4.12419E-001	-3.89081E-006	0.00000E+000	4.13150E-001	8.76479E-005	10	...........
	1052	21.06	4.08520E-001	-5.06850E-006	0.00000E+000	4.09150E-001	9.25686E-005	10	...........
	1056	21.14	4.04482E-001	-4.48800E-006	0.00000E+000	4.05150E-001	9.55711E-005	10	...........
	1060	21.22	4.00506E-001	-4.55973E-006	0.00000E+000	4.01150E-001	9.32358E-005	10	...........
	1064	21.3	3.96457E-001	-5.11354E-006	0.00000E+000	3.97150E-001	9.45702E-005	10	...........
	1068	21.38	3.92513E-001	-5.07351E-006	0.00000E+000	3.93150E-001	9.30690E-005	10	...........
	1072	21.46	3.88488E-001	-5.64067E-006	0.00000E+000	3.89150E-001	9.59881E-005	10	...........
	1076	21.54	3.84517E-001	-5.08685E-006	0.00000E+000	3.85150E-001	9.08172E-005	10	...........
	1080	21.62	3.80514E-001	-5.29036E-006	0.00000E+000	3.81150E-001	9.17346E-005	10	...........
	1084	21.7	3.76546E-001	-5.44383E-006	0.00000E+000	3.77150E-001	8.98163E-005	10	...........
	1088	21.78	3.72454E-001	-5.90757E-006	0.00000E+000	3.73150E-001	8.39782E-005	10	...........
	1092	21.86	3.68531E-001	-6.05269E-006	0.00000E+000	3.69150E-001	9.48205E-005	10	...........
	1096	21.94	3.64491E-001	-6.08773E-006	0.00000E+000	3.65150E-001	9.09006E-005	10	...........
	1100	22.02	3.60550E-001	-6.47139E-006	0.00000E+000	3.61150E-001	9.48205E-005	10	...........
	1104	22.1	3.56531E-001	-6.50476E-006	0.00000E+000	3.57150E-001	9.24018E-005	10	...........
	1108	22.18	3.52543E-001	-6.73996E-006	0.00000E+000	3.53150E-001	9.49872E-005	10	...........
	1112	22.26	3.48470E-001	-6.89009E-006	0.00000E+000	3.49150E-001	9.41532E-005	10	...........
	1116	22.34	3.44516E-001	-7.26709E-006	0.00000E+000	3.45150E-001	9.32358E-005	10	...........
	1120	22.42	3.40518E-001	-7.87928E-006	0.00000E+000	3.41150E-001	8.99832E-005	10	...........
	1124	22.5	3.36562E-001	-7.84926E-006	0.00000E+000	3.37150E-001	9.51540E-005	10	...........
	1128	22.58	3.32548E-001	-7.70413E-006	0.00000E+000	3.33150E-001	9.04836E-005	10	...........
	1132	22.66	3.28585E-001	-7.90264E-006	0.00000E+000	3.29150E-001	9.56545E-005	10	...........
	1136	22.74	3.24529E-001	-8.14452E-006	0.00000E+000	3.25150E-001	9.34026E-005	10	...........
	1140	22.82	3.20523E-001	-8.87515E-006	0.00000E+000	3.21150E-001	9.03168E-005	10	...........
	1144	22.9	3.16512E-001	-8.99359E-006	0.00000E+000	3.17150E-001	9.42366E-005	10	...........
	1148	22.98	3.12560E-001	-8.90351E-006	0.00000E+000	3.13150E-001	9.11508E-005	10	...........
	1152	23.06	3.08535E-001	-9.51905E-006	0.00000E+000	3.09150E-001	9.48205E-005	10	...........
	1156	23.14	3.04598E-001	-9.31053E-006	0.00000E+000	3.05150E-001	8.51459E-005	10	...........
	1160	23.22	3.00537E-001	-9.46900E-006	0.00000E+000	3.01150E-001	8.78981E-005	10	...........
	1164	23.3	2.96557E-001	-9.86435E-006	0.00000E+000	2.97150E-001	9.54877E-005	10	...........
	1168	23.38	2.92532E-001	-1.02714E-005	0.00000E+000	2.93150E-001	9.41532E-005	10	...........
	1172	23.46	2.88578E-001	-1.04282E-005	0.00000E+000	2.89150E-001	8.36446E-005	10	...........
	1176	23.54	2.84546E-001	-1.07484E-005	0.00000E+000	2.85150E-001	8.89823E-005	10	...........
	1180	23.62	2.80620E-001	-1.07001E-005	0.00000E+000	2.81150E-001	8.84819E-005	10	...........
	1184	23.7	2.76601E-001	-1.07801E-005	0.00000E+000	2.77150E-001	9.14010E-005	10	...........
	1188	23.78	2.72619E-001	-1.14591E-005	0.00000E+000	2.73150E-001	9.37362E-005	10	...........
	1192	23.86	2.68556E-001	-1.21497E-005	0.00000E+000	2.69150E-001	9.40698E-005	10	...........
	1196	23.94	2.64595E-001	-1.20813E-005	0.00000E+000	2.65150E-001	8.77313E-005	10	...........
	1200	24.02	2.60564E-001	-1.23215E-005	0.00000E+000	2.61150E-001	9.29022E-005	10	...........
	1204	24.1	2.56612E-001	-1.34508E-005	0.00000E+000	2.57150E-001	8.57297E-005	10	...........
	1208	24.18	2.52574E-001	-1.33407E-005	0.00000E+000	2.53150E-001	8.98998E-005	10	...........
	1212	24.26	2.48607E-001	-1.38495E-005	0.00000E+000	2.49150E-001	9.45702E-005	10	...........
	1216	24.34	2.44534E-001	-1.41664E-005	0.00000E+000	2.45150E-001	9.05670E-005	10	...........
	1220	24.42	2.40597E-001	-1.41914E-005	0.00000E+000	2.41150E-001	8.85653E-005	10	...........
	1224	24.5	2.36583E-001	-1.51389E-005	0.00000E+000	2.37150E-001	9.31524E-005	10	...........
	1228	24.58	2.32626E-001	-1.59313E-005	0.00000E+000	2.33150E-001	9.02334E-005	10	...........
	1232	24.66	2.28607E-001	-1.61281E-005	0.00000E+000	2.29150E-001	8.59799E-005	10	...........
	1236	24.74	2.24652E-001	-1.64017E-005	0.00000E+000	2.25150E-001	9.31524E-005	10	...........
	1240	24.82	2.20606E-001	-1.72858E-005	0.00000E+000	2.21150E-001	9.13176E-005	10	...........
	1244	24.9	2.16606E-001	-1.72224E-005	0.00000E+000	2.17150E-001	8.42284E-005	10	...........
	1248	24.98	2.12608E-001	-1.77646E-005	0.00000E+000	2.13150E-001	9.76561E-005	10	...........
	1252	25.06	2.08646E-001	-1.85569E-005	0.00000E+000	2.09150E-001	9.76561E-005	10	...........
	1256	25.14	2.04646E-001	-1.86603E-005	0.00000E+000	2.05150E-001	8.78981E-005	10	...........
	1260	25.22	2.00690E-001	-1.97846E-005	0.00000E+000	2.01150E-001	8.58131E-005	10	...........
	1264	25.3	1.96648E-001	-2.03985E-005	0.00000E+000	1.97150E-001	8.86487E-005	10	...........
	1268	25.38	1.92630E-001	-2.08406E-005	0.00000E+000	1.93150E-001	9.09006E-005	10	...........
	1272	25.46	1.88639E-001	-2.15545E-005	0.00000E+000	1.89150E-001	8.95661E-005	10	...........
	1276	25.54	1.84676E-001	-2.27139E-005	0.00000E+000	1.85150E-001	8.04754E-005	10	...........
	1280	25.62	1.80661E-001	-2.31876E-005	0.00000E+000	1.81150E-001	8.71475E-005	10	...........
	1284	25.7	1.76723E-001	-2.40784E-005	0.00000E+000	1.77150E-001	8.93159E-005	10	...........
	1288	25.78	1.72669E-001	-2.47823E-005	0.00000E+000	1.73150E-001	9.35694E-005	10	...........
	1292	25.86	1.68688E-001	-2.56164E-005	0.00000E+000	1.69150E-001	8.58131E-005	10	...........
	1296	25.94	1.64646E-001	-2.67524E-005	0.00000E+000	1.65150E-001	8.66471E-005	10	...........
	1300	26.02	1.60692E-001	-2.79351E-005	0.00000E+000	1.61150E-001	9.21516E-005	10	...........
	1304	26.1	1.56653E-001	-2.83971E-005	0.00000E+000	1.57150E-001	9.33192E-005	10	...........
	1308	26.18	1.52719E-001	-2.87858E-005	0.00000E+000	1.53150E-001	8.66471E-005	10	...........
	1312	26.26	1.48688E-001	-3.00035E-005	0.00000E+000	1.49150E-001	8.71475E-005	10	...........
	1316	26.34	1.44692E-001	-3.10761E-005	0.00000E+000	1.45150E-001	8.45620E-005	10	...........
	1320	26.42	1.40651E-001	-3.21421E-005	0.00000E+000	1.41150E-001	8.96496E-005	10	...........
	1324	26.5	1.36685E-001	-3.34482E-005	0.00000E+000	1.37150E-001	9.09006E-005	10	...........
	1328	26.58	1.32663E-001	-3.43557E-005	0.00000E+000	1.33150E-001	8.84819E-005	10	...........
	1332	26.66	1.28707E-001	-3.50663E-005	0.00000E+000	1.29150E-001	8.64803E-005	10	...........
	1336	26.74	1.24699E-001	-3.63674E-005	0.00000E+000	1.25150E-001	8.98998E-005	10	...........
	1340	26.82	1.20750E-001	-3.72332E-005	0.00000E+000	1.21150E-001	8.89823E-005	10	...........
	1344	26.9	1.16796E-001	-3.85143E-005	0.00000E+000	1.17150E-001	9.25686E-005	10	...........
	1348	26.98	1.12706E-001	-3.91682E-005	0.00000E+000	1.13150E-001	8.43953E-005	10	...........
	1352	27.06	1.08692E-001	-4.02942E-005	0.00000E+000	1.09150E-001	8.93159E-005	10	...........
	1356	27.14	1.04733E-001	-4.08363E-005	0.00000E+000	1.05150E-001	9.38196E-005	10	...........
	1360	27.22	1.00712E-001	-4.19957E-005	0.00000E+000	1.01150E-001	8.92325E-005	10	...........
	1364	27.3	9.67492E-002	-4.35470E-005	0.00000E+000	9.71500E-002	8.68139E-005	10	...........
	1368	27.38	9.27399E-002	-4.44978E-005	0.00000E+000	9.31500E-002	8.46455E-005	10	...........
	1372	27.46	8.87202E-002	-4.51651E-005	0.00000E+000	8.91500E-002	8.82317E-005	10	...........
	1376	27.54	8.47257E-002	-4.57556E-005	0.00000E+000	8.51500E-002	9.88237E-005	10	...........
	1380	27.62	8.07745E-002	-4.66647E-005	0.00000E+000	8.11500E-002	8.66471E-005	10	...........
	1384	27.7	7.67605E-002	-4.79342E-005	0.00000E+000	7.71500E-002	8.54795E-005	10	...........
	1388	27.78	7.27935E-002	-4.88066E-005	0.00000E+000	7.31500E-002	9.08172E-005	10	...........
	1392	27.86	6.87561E-002	-4.93754E-005	0.00000E+000	6.91500E-002	8.65637E-005	10	...........
	1396	27.94	6.47076E-002	-5.00477E-005	0.00000E+000	6.51500E-002	7.81401E-005	10	...........
	1400	28.02	6.07472E-002	-5.07650E-005	0.00000E+000	6.11500E-002	8.37280E-005	10	...........
	1404	28.1	5.67784E-002	-5.14872E-005	0.00000E+000	5.71500E-002	8.68139E-005	10	...........
	1408	28.18	5.27788E-002	-5.23213E-005	0.00000E+000	5.31500E-002	8.73977E-005	10	...........
	1412	28.26	4.88078E-002	-5.29552E-005	0.00000E+000	4.91500E-002	8.93159E-005	10	...........
	1416	28.34	4.47675E-002	-5.25398E-005	0.00000E+000	4.51500E-002	8.86487E-005	10	...........
	1420	28.42	4.07768E-002	-5.34656E-005	0.00000E+000	4.11500E-002	8.18098E-005	10	...........
	1424	28.5	3.67447E-002	-5.41396E-005	0.00000E+000	3.71500E-002	8.82317E-005	10	...........
	1428	28.58	3.27763E-002	-5.51671E-005	0.00000E+000	3.31500E-002	9.29856E-005	10	...........
	1432	28.66	2.87734E-002	-5.54407E-005	0.00000E+000	2.91500E-002	8.21434E-005	10	...........
	1436	28.74	2.48407E-002	-5.57993E-005	0.00000E+000	2.51500E-002	8.30608E-005	10	...........
	1440	28.82	2.08725E-002	-5.65050E-005	0.00000E+000	2.11500E-002	8.55629E-005	10	...........
	1444	28.9	1.68403E-002	-5.74808E-005	0.00000E+000	1.71500E-002	8.38114E-005	10	...........
	1448	28.98	1.27567E-002	-5.78595E-005	0.00000E+000	1.31500E-002	7.93912E-005	10	...........
	1452	29.06	8.76206E-003	-5.85017E-005	0.00000E+000	9.15001E-003	7.83069E-005	10	...........
	1456	29.14	4.74486E-003	-5.90105E-005	0.00000E+000	5.15001E-003	8.15596E-005	10	...........
	1460	29.22	7.60765E-004	-5.96377E-005	0.00000E+000	1.15000E-003	8.23936E-005	10	...........
	1464	29.3	-3.09914E-003	-6.05118E-005	0.00000E+000	-2.85000E-003	8.61467E-005	10	...........
	1468	29.38	-7.13595E-003	-6.10406E-005	0.00000E+000	-6.85000E-003	8.20600E-005	10	...........
	1472	29.46	-1.10653E-002	-6.15510E-005	0.00000E+000	-1.08500E-002	7.65555E-005	10	...........
	1476	29.54	-1.51416E-002	-6.18396E-005	0.00000E+000	-1.48500E-002	8.53961E-005	10	...........
	1480	29.62	-1.91038E-002	-6.22583E-005	0.00000E+000	-1.88500E-002	8.45620E-005	10	...........
	1484	29.7	-2.31172E-002	-6.20164E-005	0.00000E+000	-2.28500E-002	8.08090E-005	10	...........
	1488	29.78	-2.70447E-002	-6.31574E-005	0.00000E+000	-2.68500E-002	8.06422E-005	10	...........
	1492	29.86	-3.11051E-002	-6.35895E-005	0.00000E+000	-3.08500E-002	8.80649E-005	10	...........
	1496	29.94	-3.50319E-002	-6.39965E-005	0.00000E+000	-3.48500E-002	8.34778E-005	10	...........
	1500	30.02	-3.91199E-002	-6.44402E-005	0.00000E+000	-3.88500E-002	8.98163E-005	10	...........
	1504	30.1	-4.31000E-002	-6.48656E-005	0.00000E+000	-4.28500E-002	8.73143E-005	10	...........
	1508	30.18	-4.70988E-002	-6.55628E-005	0.00000E+000	-4.68500E-002	9.17346E-005	10	...........
	1512	30.26	-5.10465E-002	-6.58948E-005	0.00000E+000	-5.08500E-002	8.60633E-005	10	...........
	1516	30.34	-5.50977E-002	-6.58581E-005	0.00000E+000	-5.48500E-002	9.15678E-005	10	...........
	1520	30.42	-5.90515E-002	-6.59765E-005	0.00000E+000	-5.88500E-002	8.18098E-005	10	...........
	1524	30.5	-6.31430E-002	-6.61083E-005	0.00000E+000	-6.28500E-002	8.22268E-005	10	...........
	1528	30.58	-6.70992E-002	-6.58948E-005	0.00000E+000	-6.68500E-002	8.61467E-005	10	...........
	1532	30.66	-7.11072E-002	-6.56646E-005	0.00000E+000	-7.08500E-002	8.74811E-005	10	...........
	1536	30.74	-7.50112E-002	-6.60649E-005	0.00000E+000	-7.48500E-002	8.25604E-005	10	...........
	1540	30.82	-7.90528E-002	-6.56829E-005	0.00000E+000	-7.88500E-002	8.53961E-005	10	...........
	1544	30.9	-8.29716E-002	-6.57830E-005	0.00000E+000	-8.28500E-002	9.17346E-005	10	...........
	1548	30.98	-8.70838E-002	-6.53977E-005	0.00000E+000	-8.68500E-002	8.96496E-005	10	...........
	1552	31.06	-9.10892E-002	-6.49206E-005	0.00000E+000	-9.08500E-002	9.34860E-005	10	...........
	1556	31.14	-9.50927E-002	-6.53426E-005	0.00000E+000	-9.48500E-002	8.88989E-005	10	...........
	1560	31.22	-9.90280E-002	-6.48122E-005	0.00000E+000	-9.88500E-002	8.73143E-005	10	...........
	1564	31.3	-1.03061E-001	-6.45269E-005	0.00000E+000	-1.02850E-001	9.24018E-005	10	...........
	1568	31.38	-1.06920E-001	-6.44068E-005	0.00000E+000	-1.06850E-001	8.99832E-005	10	...........
	1572	31.46	-1.11063E-001	-6.39031E-005	0.00000E+000	-1.10850E-001	9.22350E-005	10	...........
	1576	31.54	-1.15069E-001	-6.34276E-005	0.00000E+000	-1.14850E-001	8.57297E-005	10	...........
	1580	31.62	-1.19084E-001	-6.32425E-005	0.00000E+000	-1.18850E-001	9.12342E-005	10	...........
	1584	31.7	-1.23005E-001	-6.30940E-005	0.00000E+000	-1.22850E-001	9.67387E-005	10	...........
	1588	31.78	-1.27066E-001	-6.26253E-005	0.00000E+000	-1.26850E-001	9.34860E-005	10	...........
[...]
	13586	271.74	-2.74957E-001	-2.05336E-005	0.00000E+000	-2.75000E-001	4.95334E-005	10	...........
	13588	271.78	-2.73032E-001	-2.07989E-005	0.00000E+000	-2.73000E-001	5.61221E-005	10	...........
	13590	271.82	-2.71051E-001	-2.02951E-005	0.00000E+000	-2.71000E-001	4.91998E-005	10	...........
	13592	271.86	-2.69072E-001	-1.99081E-005	0.00000E+000	-2.69000E-001	5.57885E-005	10	...........
	13594	271.9	-2.66920E-001	-1.95678E-005	0.00000E+000	-2.67000E-001	4.43625E-005	10	...........
	13596	271.94	-2.65019E-001	-1.87671E-005	0.00000E+000	-2.65000E-001	5.52047E-005	10	...........
	13598	271.98	-2.63038E-001	-1.94710E-005	0.00000E+000	-2.63000E-001	5.51213E-005	10	...........
	13600	272.02	-2.61037E-001	-1.93409E-005	0.00000E+000	-2.61000E-001	5.73731E-005	10	...........
	13602	272.06	-2.58906E-001	-1.90307E-005	0.00000E+000	-2.59000E-001	4.74484E-005	10	...........
	13604	272.1	-2.57004E-001	-1.87571E-005	0.00000E+000	-2.57000E-001	5.23690E-005	10	...........
	13606	272.14	-2.55048E-001	-1.89623E-005	0.00000E+000	-2.55000E-001	5.41205E-005	10	...........
	13608	272.18	-2.53064E-001	-1.87704E-005	0.00000E+000	-2.53000E-001	5.86242E-005	10	...........
	13610	272.22	-2.50959E-001	-1.85653E-005	0.00000E+000	-2.51000E-001	5.31197E-005	10	...........
	13612	272.26	-2.49033E-001	-1.78646E-005	0.00000E+000	-2.49000E-001	6.34615E-005	10	...........
	13614	272.3	-2.47059E-001	-1.76845E-005	0.00000E+000	-2.47000E-001	5.42873E-005	10	...........
	13616	272.34	-2.45073E-001	-1.80081E-005	0.00000E+000	-2.45000E-001	5.13682E-005	10	...........
	13618	272.38	-2.43018E-001	-1.74143E-005	0.00000E+000	-2.43000E-001	4.91164E-005	10	...........
	13620	272.42	-2.41036E-001	-1.75844E-005	0.00000E+000	-2.41000E-001	5.12848E-005	10	...........
	13622	272.46	-2.39031E-001	-1.75160E-005	0.00000E+000	-2.39000E-001	5.26193E-005	10	...........
	13624	272.5	-2.37057E-001	-1.75861E-005	0.00000E+000	-2.37000E-001	5.94582E-005	10	...........
	13626	272.54	-2.34880E-001	-1.74092E-005	0.00000E+000	-2.35000E-001	4.81990E-005	10	...........
	13628	272.58	-2.33006E-001	-1.69488E-005	0.00000E+000	-2.33000E-001	5.53715E-005	10	...........
	13630	272.62	-2.31036E-001	-1.64551E-005	0.00000E+000	-2.31000E-001	5.82072E-005	10	...........
	13632	272.66	-2.29073E-001	-1.67337E-005	0.00000E+000	-2.29000E-001	5.94582E-005	10	...........
	13634	272.7	-2.26960E-001	-1.64417E-005	0.00000E+000	-2.27000E-001	5.60387E-005	10	...........
	13636	272.74	-2.25049E-001	-1.61248E-005	0.00000E+000	-2.25000E-001	5.47877E-005	10	...........
	13638	272.78	-2.23077E-001	-1.58095E-005	0.00000E+000	-2.23000E-001	5.36201E-005	10	...........
	13640	272.82	-2.21089E-001	-1.55793E-005	0.00000E+000	-2.21000E-001	6.08760E-005	10	...........
	13642	272.86	-2.19059E-001	-1.54993E-005	0.00000E+000	-2.19000E-001	5.60387E-005	10	...........
	13644	272.9	-2.17059E-001	-1.54676E-005	0.00000E+000	-2.17000E-001	6.07092E-005	10	...........
	13646	272.94	-2.15074E-001	-1.50122E-005	0.00000E+000	-2.15000E-001	5.51213E-005	10	...........
	13648	272.98	-2.13080E-001	-1.55676E-005	0.00000E+000	-2.13000E-001	6.34615E-005	10	...........
	13650	273.02	-2.10925E-001	-1.55009E-005	0.00000E+000	-2.11000E-001	5.33699E-005	10	...........
	13652	273.06	-2.09036E-001	-1.47619E-005	0.00000E+000	-2.09000E-001	5.91246E-005	10	...........
	13654	273.1	-2.07047E-001	-1.47469E-005	0.00000E+000	-2.07000E-001	5.97918E-005	10	...........
	13656	273.14	-2.05077E-001	-1.45251E-005	0.00000E+000	-2.05000E-001	5.58719E-005	10	...........
	13658	273.18	-2.02989E-001	-1.43432E-005	0.00000E+000	-2.03000E-001	5.21188E-005	10	...........
	13660	273.22	-2.01077E-001	-1.39629E-005	0.00000E+000	-2.01000E-001	5.68727E-005	10	...........
	13662	273.26	-1.99101E-001	-1.40663E-005	0.00000E+000	-1.99000E-001	5.12848E-005	10	...........
	13664	273.3	-1.97117E-001	-1.38078E-005	0.00000E+000	-1.97000E-001	5.35367E-005	10	...........
	13666	273.34	-1.95093E-001	-1.43099E-005	0.00000E+000	-1.95000E-001	4.92832E-005	10	...........
	13668	273.38	-1.93114E-001	-1.40980E-005	0.00000E+000	-1.93000E-001	6.04590E-005	10	...........
	13670	273.42	-1.91122E-001	-1.37811E-005	0.00000E+000	-1.91000E-001	5.46209E-005	10	...........
	13672	273.46	-1.89134E-001	-1.33657E-005	0.00000E+000	-1.89000E-001	6.14598E-005	10	...........
	13674	273.5	-1.87016E-001	-1.33107E-005	0.00000E+000	-1.87000E-001	5.61221E-005	10	...........
	13676	273.54	-1.85059E-001	-1.32123E-005	0.00000E+000	-1.85000E-001	5.84574E-005	10	...........
	13678	273.58	-1.83070E-001	-1.25066E-005	0.00000E+000	-1.83000E-001	5.01172E-005	10	...........
	13680	273.62	-1.81088E-001	-1.23582E-005	0.00000E+000	-1.81000E-001	5.85408E-005	10	...........
	13682	273.66	-1.78996E-001	-1.26835E-005	0.00000E+000	-1.79000E-001	5.23690E-005	10	...........
	13684	273.7	-1.77085E-001	-1.22965E-005	0.00000E+000	-1.77000E-001	5.82906E-005	10	...........
	13686	273.74	-1.75091E-001	-1.20879E-005	0.00000E+000	-1.75000E-001	4.93666E-005	10	...........
	13688	273.78	-1.73139E-001	-1.21747E-005	0.00000E+000	-1.73000E-001	5.09512E-005	10	...........
	13690	273.82	-1.71110E-001	-1.20579E-005	0.00000E+000	-1.71000E-001	5.02006E-005	10	...........
	13692	273.86	-1.69118E-001	-1.19228E-005	0.00000E+000	-1.69000E-001	5.12848E-005	10	...........
	13694	273.9	-1.67137E-001	-1.16809E-005	0.00000E+000	-1.67000E-001	5.07010E-005	10	...........
	13696	273.94	-1.65170E-001	-1.18261E-005	0.00000E+000	-1.65000E-001	4.97002E-005	10	...........
	13698	273.98	-1.63028E-001	-1.14641E-005	0.00000E+000	-1.63000E-001	4.63641E-005	10	...........
	13700	274.02	-1.61098E-001	-1.10737E-005	0.00000E+000	-1.61000E-001	5.45375E-005	10	...........
	13702	274.06	-1.59115E-001	-1.11905E-005	0.00000E+000	-1.59000E-001	5.17018E-005	10	...........
	13704	274.1	-1.57129E-001	-1.11304E-005	0.00000E+000	-1.57000E-001	6.00420E-005	10	...........
	13706	274.14	-1.55075E-001	-1.06033E-005	0.00000E+000	-1.55000E-001	4.51965E-005	10	...........
	13708	274.18	-1.53099E-001	-1.05483E-005	0.00000E+000	-1.53000E-001	5.47877E-005	10	...........
	13710	274.22	-1.51104E-001	-1.05900E-005	0.00000E+000	-1.51000E-001	5.13682E-005	10	...........
	13712	274.26	-1.49122E-001	-1.08569E-005	0.00000E+000	-1.49000E-001	5.50379E-005	10	...........
	13714	274.3	-1.47099E-001	-1.04098E-005	0.00000E+000	-1.47000E-001	5.38703E-005	10	...........
	13716	274.34	-1.45115E-001	-1.02830E-005	0.00000E+000	-1.45000E-001	5.77067E-005	10	...........
	13718	274.38	-1.43132E-001	-1.03481E-005	0.00000E+000	-1.43000E-001	5.87076E-005	10	...........
	13720	274.42	-1.41156E-001	-1.03564E-005	0.00000E+000	-1.41000E-001	5.55383E-005	10	...........
	13722	274.46	-1.39011E-001	-1.00795E-005	0.00000E+000	-1.39000E-001	5.10346E-005	10	...........
	13724	274.5	-1.37100E-001	-9.72589E-006	0.00000E+000	-1.37000E-001	6.45457E-005	10	...........
	13726	274.54	-1.35088E-001	-9.09701E-006	0.00000E+000	-1.35000E-001	5.89578E-005	10	...........
	13728	274.58	-1.33121E-001	-9.31887E-006	0.00000E+000	-1.33000E-001	5.91246E-005	10	...........
	13730	274.62	-1.31045E-001	-9.33222E-006	0.00000E+000	-1.31000E-001	5.17018E-005	10	...........
	13732	274.66	-1.29087E-001	-9.45733E-006	0.00000E+000	-1.29000E-001	6.37951E-005	10	...........
	13734	274.7	-1.27134E-001	-8.91018E-006	0.00000E+000	-1.27000E-001	6.27942E-005	10	...........
	13736	274.74	-1.25156E-001	-9.16040E-006	0.00000E+000	-1.25000E-001	6.37117E-005	10	...........
	13738	274.78	-1.23149E-001	-9.31053E-006	0.00000E+000	-1.23000E-001	6.04590E-005	10	...........
	13740	274.82	-1.21136E-001	-8.89017E-006	0.00000E+000	-1.21000E-001	5.99586E-005	10	...........
	13742	274.86	-1.19154E-001	-9.09034E-006	0.00000E+000	-1.19000E-001	5.52881E-005	10	...........
	13744	274.9	-1.17162E-001	-8.73503E-006	0.00000E+000	-1.17000E-001	5.60387E-005	10	...........
	13746	274.94	-1.15165E-001	-8.47981E-006	0.00000E+000	-1.15000E-001	5.62055E-005	10	...........
	13748	274.98	-1.13128E-001	-8.47814E-006	0.00000E+000	-1.13000E-001	5.83740E-005	10	...........
	13750	275.02	-1.11121E-001	-8.43810E-006	0.00000E+000	-1.11000E-001	5.07844E-005	10	...........
	13752	275.06	-1.09165E-001	-8.20957E-006	0.00000E+000	-1.09000E-001	5.72897E-005	10	...........
	13754	275.1	-1.07039E-001	-8.05277E-006	0.00000E+000	-1.07000E-001	5.81238E-005	10	...........
	13756	275.14	-1.05120E-001	-8.07279E-006	0.00000E+000	-1.05000E-001	5.63723E-005	10	...........
	13758	275.18	-1.03123E-001	-7.89763E-006	0.00000E+000	-1.03000E-001	5.92080E-005	10	...........
	13760	275.22	-1.01216E-001	-7.93767E-006	0.00000E+000	-1.01000E-001	5.42873E-005	10	...........
	13762	275.26	-9.91680E-002	-7.75751E-006	0.00000E+000	-9.90000E-002	4.92832E-005	10	...........
	13764	275.3	-9.71586E-002	-7.76752E-006	0.00000E+000	-9.70000E-002	5.27861E-005	10	...........
	13766	275.34	-9.51794E-002	-7.46059E-006	0.00000E+000	-9.50000E-002	5.01172E-005	10	...........
	13768	275.38	-9.32151E-002	-7.45225E-006	0.00000E+000	-9.30000E-002	5.20354E-005	10	...........
	13770	275.42	-9.12083E-002	-7.50896E-006	0.00000E+000	-9.10000E-002	5.05342E-005	10	...........
	13772	275.46	-8.91531E-002	-7.30212E-006	0.00000E+000	-8.90000E-002	5.65391E-005	10	...........
	13774	275.5	-8.71499E-002	-7.48728E-006	0.00000E+000	-8.70000E-002	5.70395E-005	10	...........
	13776	275.54	-8.52492E-002	-7.18034E-006	0.00000E+000	-8.50000E-002	5.82072E-005	10	...........
	13778	275.58	-8.31157E-002	-7.20870E-006	0.00000E+000	-8.30000E-002	4.60305E-005	10	...........
	13780	275.62	-8.11398E-002	-7.29878E-006	0.00000E+000	-8.10000E-002	5.47043E-005	10	...........
	13782	275.66	-7.91426E-002	-6.52310E-006	0.00000E+000	-7.90000E-002	5.44541E-005	10	...........
	13784	275.7	-7.71818E-002	-6.62986E-006	0.00000E+000	-7.70000E-002	5.28695E-005	10	...........
	13786	275.74	-7.51661E-002	-6.31292E-006	0.00000E+000	-7.50000E-002	5.02006E-005	10	...........
	13788	275.78	-7.31743E-002	-5.91424E-006	0.00000E+000	-7.30000E-002	5.79570E-005	10	...........
	13790	275.82	-7.11953E-002	-5.61064E-006	0.00000E+000	-7.10000E-002	5.02840E-005	10	...........
	13792	275.86	-6.92238E-002	-6.02767E-006	0.00000E+000	-6.90000E-002	5.40371E-005	10	...........
	13794	275.9	-6.72202E-002	-5.98430E-006	0.00000E+000	-6.70000E-002	5.68727E-005	10	...........
	13796	275.94	-6.52029E-002	-5.77078E-006	0.00000E+000	-6.50000E-002	5.46209E-005	10	...........
	13798	275.98	-6.32230E-002	-6.07605E-006	0.00000E+000	-6.30000E-002	4.17770E-005	10	...........
	13800	276.02	-6.12705E-002	-5.84251E-006	0.00000E+000	-6.10000E-002	5.35367E-005	10	...........
	13802	276.06	-5.91833E-002	-5.79747E-006	0.00000E+000	-5.90000E-002	4.91164E-005	10	...........
	13804	276.1	-5.71731E-002	-5.75243E-006	0.00000E+000	-5.70000E-002	5.32031E-005	10	...........
	13806	276.14	-5.51773E-002	-5.47886E-006	0.00000E+000	-5.50000E-002	5.17018E-005	10	...........
	13808	276.18	-5.32107E-002	-5.63066E-006	0.00000E+000	-5.30000E-002	5.88744E-005	10	...........
	13810	276.22	-5.11718E-002	-5.47553E-006	0.00000E+000	-5.10000E-002	5.23690E-005	10	...........
	13812	276.26	-4.91708E-002	-5.32540E-006	0.00000E+000	-4.90000E-002	5.65391E-005	10	...........
	13814	276.3	-4.71858E-002	-4.98677E-006	0.00000E+000	-4.70000E-002	5.32031E-005	10	...........
	13816	276.34	-4.52261E-002	-5.41381E-006	0.00000E+000	-4.50000E-002	5.04508E-005	10	...........
	13818	276.38	-4.32121E-002	-5.11855E-006	0.00000E+000	-4.30000E-002	5.20354E-005	10	...........
	13820	276.42	-4.12067E-002	-5.22364E-006	0.00000E+000	-4.10000E-002	5.13682E-005	10	...........
	13822	276.46	-3.92203E-002	-5.23031E-006	0.00000E+000	-3.90000E-002	4.67811E-005	10	...........
	13824	276.5	-3.72990E-002	-5.00345E-006	0.00000E+000	-3.70000E-002	5.41205E-005	10	...........
	13826	276.54	-3.51987E-002	-4.64981E-006	0.00000E+000	-3.50000E-002	4.68645E-005	10	...........
	13828	276.58	-3.31905E-002	-4.60143E-006	0.00000E+000	-3.30000E-002	5.17852E-005	10	...........
	13830	276.62	-3.11986E-002	-4.94673E-006	0.00000E+000	-3.10000E-002	4.90330E-005	10	...........
	13832	276.66	-2.92244E-002	-4.85165E-006	0.00000E+000	-2.90000E-002	4.66977E-005	10	...........
	13834	276.7	-2.71958E-002	-4.39792E-006	0.00000E+000	-2.70000E-002	4.87828E-005	10	...........
	13836	276.74	-2.51994E-002	-4.36789E-006	0.00000E+000	-2.50000E-002	5.60387E-005	10	...........
	13838	276.78	-2.32137E-002	-4.35955E-006	0.00000E+000	-2.30000E-002	5.23690E-005	10	...........
	13840	276.82	-2.12465E-002	-4.25113E-006	0.00000E+000	-2.10000E-002	5.27027E-005	10	...........
	13842	276.86	-1.92406E-002	-4.39125E-006	0.00000E+000	-1.90000E-002	4.85326E-005	10	...........
	13844	276.9	-1.72232E-002	-4.32119E-006	0.00000E+000	-1.70000E-002	5.43707E-005	10	...........
	13846	276.94	-1.52382E-002	-3.87580E-006	0.00000E+000	-1.50000E-002	5.07010E-005	10	...........
	13848	276.98	-1.32647E-002	-3.98590E-006	0.00000E+000	-1.30000E-002	5.06176E-005	10	...........
	13850	277.02	-1.12281E-002	-3.73735E-006	0.00000E+000	-1.10000E-002	4.70313E-005	10	...........
	13852	277.06	-9.20631E-003	-3.86579E-006	0.00000E+000	-9.00000E-003	5.17018E-005	10	...........
	13854	277.1	-7.22477E-003	-3.88748E-006	0.00000E+000	-7.00000E-003	4.65309E-005	10	...........
	13856	277.14	-5.27751E-003	-4.02593E-006	0.00000E+000	-5.00000E-003	5.03674E-005	10	...........
	13858	277.18	-3.23525E-003	-3.81742E-006	0.00000E+000	-3.00000E-003	4.57803E-005	10	...........
	13860	277.22	-1.21043E-003	-4.28115E-006	0.00000E+000	-9.99995E-004	5.52047E-005	10	...........
	13862	277.26	6.66688E-004	-4.04428E-006	0.00000E+000	1.00000E-003	5.47043E-005	10	...........
	13864	277.3	2.62070E-003	-3.62892E-006	0.00000E+000	3.00001E-003	5.65391E-005	10	...........
	13866	277.34	4.64978E-003	-3.52549E-006	0.00000E+000	5.00000E-003	4.71148E-005	10	...........
	13868	277.38	6.73649E-003	-3.29029E-006	0.00000E+000	7.00001E-003	5.87076E-005	10	...........
	13870	277.42	8.67474E-003	-3.44042E-006	0.00000E+000	9.00000E-003	5.71229E-005	10	...........
	13872	277.46	1.06533E-002	-3.01672E-006	0.00000E+000	1.10000E-002	4.88662E-005	10	...........
	13874	277.5	1.26449E-002	-3.39371E-006	0.00000E+000	1.30000E-002	5.37869E-005	10	...........
	13876	277.54	1.47715E-002	-2.96167E-006	0.00000E+000	1.50000E-002	5.29529E-005	10	...........
	13878	277.58	1.67327E-002	-3.29529E-006	0.00000E+000	1.70000E-002	4.97002E-005	10	...........
	13880	277.62	1.85914E-002	-3.13515E-006	0.00000E+000	1.90000E-002	5.39537E-005	10	...........
	13882	277.66	2.07326E-002	-3.02506E-006	0.00000E+000	2.10000E-002	5.57051E-005	10	...........
	13884	277.7	2.27718E-002	-3.17019E-006	0.00000E+000	2.30000E-002	5.31197E-005	10	...........
	13886	277.74	2.47377E-002	-3.20688E-006	0.00000E+000	2.50000E-002	4.88662E-005	10	...........
	13888	277.78	2.65915E-002	-3.13515E-006	0.00000E+000	2.70000E-002	5.46209E-005	10	...........
	13890	277.82	2.86605E-002	-2.88661E-006	0.00000E+000	2.90000E-002	5.23690E-005	10	...........
	13892	277.86	3.07593E-002	-2.85658E-006	0.00000E+000	3.10000E-002	5.09512E-005	10	...........
	13894	277.9	3.26873E-002	-2.38450E-006	0.00000E+000	3.30000E-002	5.45375E-005	10	...........
	13896	277.94	3.46312E-002	-2.68143E-006	0.00000E+000	3.50000E-002	5.81238E-005	10	...........
	13898	277.98	3.66301E-002	-2.51962E-006	0.00000E+000	3.70000E-002	5.08678E-005	10	...........
	13900	278.02	3.87210E-002	-2.38116E-006	0.00000E+000	3.90000E-002	5.84574E-005	10	...........
	13902	278.06	4.06675E-002	-2.58468E-006	0.00000E+000	4.10000E-002	5.60387E-005	10	...........
	13904	278.1	4.25836E-002	-2.47625E-006	0.00000E+000	4.30000E-002	6.02922E-005	10	...........
	13906	278.14	4.46599E-002	-2.68977E-006	0.00000E+000	4.50000E-002	5.87076E-005	10	...........
	13908	278.18	4.67714E-002	-2.10092E-006	0.00000E+000	4.70000E-002	5.69561E-005	10	...........
	13910	278.22	4.87114E-002	-2.05922E-006	0.00000E+000	4.90000E-002	5.97084E-005	10	...........
	13912	278.26	5.06021E-002	-1.82735E-006	0.00000E+000	5.10000E-002	6.02088E-005	10	...........
	13914	278.3	5.26643E-002	-1.65553E-006	0.00000E+000	5.30000E-002	5.75399E-005	10	...........
	13916	278.34	5.47579E-002	-1.70391E-006	0.00000E+000	5.50000E-002	5.13682E-005	10	...........
	13918	278.38	5.66857E-002	-1.47371E-006	0.00000E+000	5.70000E-002	5.60387E-005	10	...........
	13920	278.42	5.86182E-002	-1.59715E-006	0.00000E+000	5.90000E-002	5.06176E-005	10	...........
	13922	278.46	6.06501E-002	-1.82568E-006	0.00000E+000	6.10000E-002	5.78736E-005	10	...........
	13924	278.5	6.27024E-002	-1.29022E-006	0.00000E+000	6.30000E-002	5.39537E-005	10	...........
	13926	278.54	6.45855E-002	-1.45536E-006	0.00000E+000	6.50000E-002	6.05424E-005	10	...........
	13928	278.58	6.65821E-002	-1.24184E-006	0.00000E+000	6.70000E-002	5.69561E-005	10	...........
	13930	278.62	6.86495E-002	-1.22182E-006	0.00000E+000	6.90000E-002	5.71229E-005	10	...........
	13932	278.66	7.07597E-002	-1.09004E-006	0.00000E+000	7.10000E-002	5.37035E-005	10	...........
	13934	278.7	7.26997E-002	-8.11465E-007	0.00000E+000	7.30000E-002	5.47877E-005	10	...........
	13936	278.74	7.45953E-002	-8.64845E-007	0.00000E+000	7.50000E-002	5.51213E-005	10	...........
	13938	278.78	7.66567E-002	-1.04834E-006	0.00000E+000	7.70000E-002	5.46209E-005	10	...........
	13940	278.82	7.87636E-002	-7.83107E-007	0.00000E+000	7.90000E-002	4.99504E-005	10	...........
	13942	278.86	8.06656E-002	-7.54749E-007	0.00000E+000	8.10000E-002	5.35367E-005	10	...........
	13944	278.9	8.25944E-002	-5.57911E-007	0.00000E+000	8.30000E-002	6.18768E-005	10	...........
	13946	278.94	8.46282E-002	-6.86356E-007	0.00000E+000	8.50000E-002	5.94582E-005	10	...........
	13948	278.98	8.67045E-002	-6.29640E-007	0.00000E+000	8.70000E-002	5.57885E-005	10	...........
	13950	279.02	8.86256E-002	-5.01195E-007	0.00000E+000	8.90000E-002	5.41205E-005	10	...........
	13952	279.06	9.05408E-002	-5.14540E-007	0.00000E+000	9.10000E-002	5.67059E-005	10	...........
	13954	279.1	9.25856E-002	-1.37545E-007	0.00000E+000	9.30000E-002	5.43707E-005	10	...........
	13956	279.14	9.46928E-002	4.57973E-007	0.00000E+000	9.50000E-002	4.71981E-005	10	...........
	13958	279.18	9.66458E-002	1.39363E-007	0.00000E+000	9.70000E-002	4.98670E-005	10	...........
	13960	279.22	9.85820E-002	4.69650E-007	0.00000E+000	9.90000E-002	5.32031E-005	10	...........
	13962	279.26	1.00611E-001	5.48052E-007	0.00000E+000	1.01000E-001	5.67893E-005	10	...........
	13964	279.3	1.02749E-001	6.98183E-007	0.00000E+000	1.03000E-001	4.95334E-005	10	...........
	13966	279.34	1.04625E-001	4.99676E-007	0.00000E+000	1.05000E-001	5.77901E-005	10	...........
	13968	279.38	1.06576E-001	7.84925E-007	0.00000E+000	1.07000E-001	5.48711E-005	10	...........
	13970	279.42	1.08577E-001	2.51127E-007	0.00000E+000	1.09000E-001	5.57885E-005	10	...........
	13972	279.46	1.10692E-001	6.71493E-007	0.00000E+000	1.11000E-001	5.37869E-005	10	...........
	13974	279.5	1.12602E-001	7.26541E-007	0.00000E+000	1.13000E-001	5.64557E-005	10	...........
	13976	279.54	1.14567E-001	8.43309E-007	0.00000E+000	1.15000E-001	5.33699E-005	10	...........
	13978	279.58	1.16567E-001	3.82908E-007	0.00000E+000	1.17000E-001	5.55383E-005	10	...........
	13980	279.62	1.18741E-001	6.64820E-007	0.00000E+000	1.19000E-001	5.16184E-005	10	...........
	13982	279.66	1.20639E-001	7.39885E-007	0.00000E+000	1.21000E-001	5.62055E-005	10	...........
	13984	279.7	1.22563E-001	6.86506E-007	0.00000E+000	1.23000E-001	6.06258E-005	10	...........
	13986	279.74	1.24597E-001	5.88087E-007	0.00000E+000	1.25000E-001	5.77901E-005	10	...........
	13988	279.78	1.26746E-001	9.55073E-007	0.00000E+000	1.27000E-001	4.53633E-005	10	...........
	13990	279.82	1.28599E-001	7.53230E-007	0.00000E+000	1.29000E-001	6.03756E-005	10	...........
	13992	279.86	1.30570E-001	9.28383E-007	0.00000E+000	1.31000E-001	5.52047E-005	10	...........
	13994	279.9	1.32564E-001	9.90103E-007	0.00000E+000	1.33000E-001	5.17018E-005	10	...........
	13996	279.94	1.34689E-001	1.66402E-006	0.00000E+000	1.35000E-001	5.66225E-005	10	...........
	13998	279.98	1.36586E-001	1.43382E-006	0.00000E+000	1.37000E-001	6.14598E-005	10	...........
	14000	280.02	1.38570E-001	1.84084E-006	0.00000E+000	1.39000E-001	6.06258E-005	10	...........