File: 20191209/CVTESTKRISTALL3BOX6_1.DTA
EXPLAIN
TAG	CV
TITLE	LABEL	CV	Test &Identifier
DATE	LABEL	12/9/2019	Date
TIME	LABEL	12:58:59	Time
NOTES	NOTES	1	&Notes...

PSTAT	PSTAT	REF600-16093	Potentiostat
VINIT	POTEN	0.00000E+000	T	Initial &E (V)
VLIMIT1	POTEN	7.00000E-001	F	Scan Limit &1 (V)
VLIMIT2	POTEN	-6.00000E-001	F	Scan Limit &2 (V)
VFINAL	POTEN	0.00000E+000	T	Final &E (V)
SCANRATE	QUANT	4.99999E+001	&Scan Rate (mV/s)
STEPSIZE	QUANT	1.00000E+000	St&ep Size (mV)
CYCLES	IQUANT	5	C&ycles (#)
IMODE	SELECTOR	1	I/E Range &Mode
IRANGE	QUANT	1.50000E+001	&Max Current (mA)
AREA	QUANT	1.00000E+000	Electrode &Area (cm^2)
ELECTRODETYPE	SELECTOR	0	Electrode Type
STRIPPING	TOGGLE	F	Used for Stripping
POLARITY	TOGGLE	F	Signal Polarity
CONDIT	TWOPARAM	F	1.50000E+001	0.00000E+000	Conditionin&g	Time(s)	E(V)
DELAY	TWOPARAM	T	5.00000E+000	0.00000E+000	Init. De&lay	Time(s)	Stab.(mV/s)
EQDELAY	QUANT	3.00000E+000	Equil. &Time (s)
IRCOMP	SELECTOR	0	IRCom&p
PFCOR	QUANT	0.00000E+000	PF Corr. (ohm)
SAMPLINGMODE	SELECTOR	2	Sampling &Mode
OCVCURVE	TABLE	20
	Pt	T	Vf	Vm	Ach	Over
	#	s	V vs. Ref.	V	V	bits
	0	0.25	-1.40785E-001	-1.40785E-001	6.96004E-005	...........
	1	0.5	-1.40778E-001	-1.40425E-001	6.89337E-005	...........
	2	0.75	-1.40719E-001	-1.39157E-001	6.56838E-005	...........
	3	1	-1.40497E-001	-1.38297E-001	6.79338E-005	...........
	4	1.25	-1.40098E-001	-1.41729E-001	6.73504E-005	...........
	5	1.5	-1.39730E-001	-1.37227E-001	6.87254E-005	...........
	6	1.75	-1.39515E-001	-1.39412E-001	6.61005E-005	...........
	7	2	-1.39383E-001	-1.42193E-001	6.23088E-005	...........
	8	2.25	-1.39384E-001	-1.36377E-001	6.41422E-005	...........
	9	2.5	-1.39445E-001	-1.38986E-001	6.32255E-005	...........
	10	2.75	-1.39312E-001	-1.40318E-001	6.61005E-005	...........
	11	3	-1.39063E-001	-1.37020E-001	6.03089E-005	...........
	12	3.25	-1.38902E-001	-1.39654E-001	6.82671E-005	...........
	13	3.5	-1.38850E-001	-1.41006E-001	6.70171E-005	...........
	14	3.75	-1.39002E-001	-1.39545E-001	6.04755E-005	...........
	15	4	-1.39379E-001	-1.39719E-001	6.89754E-005	...........
	16	4.25	-1.39749E-001	-1.41077E-001	6.85171E-005	...........
	17	4.5	-1.39944E-001	-1.37628E-001	5.91422E-005	...........
	18	4.75	-1.39929E-001	-1.40405E-001	7.09754E-005	...........
	19	5	-1.39780E-001	-1.41198E-001	7.01837E-005	...........
EOC	QUANT	-0.13978	Open Circuit (V)
PSTATMODEL	IQUANT	4	Pstat Model
PSTATSECTION	LABEL	REF600-16093	Pstat Section
PSTATSERIALNO	LABEL	16093	Pstat Serial Number
CTRLMODE	IQUANT	1	Control Mode
IESTAB	IQUANT	2	I/E Stability
CASPEED	IQUANT	2	Control Amp Speed
CONVENTION	IQUANT	1	Current Convention
ICHRANGE	IQUANT	2	Ich Range
ICHRANGEMODE	TOGGLE	F	Ich Auto Range
ICHOFFSETENABLE	TOGGLE	F	Ich Offset Enable
ICHOFFSET	QUANT	0	Ich Offset (V)
ICHFILTER	IQUANT	2	Ich Filter
VCHRANGE	IQUANT	2	Vch Range
VCHRANGEMODE	TOGGLE	F	Vch Auto Range
VCHOFFSETENABLE	TOGGLE	F	Vch Offset Enable
VCHOFFSET	QUANT	0	Vch Offset (V)
VCHFILTER	IQUANT	2	Vch Filter
ACHRANGE	IQUANT	2	Ach Range
ACHOFFSETENABLE	TOGGLE	F	Ach Offset Enable
ACHOFFSET	QUANT	0	Ach Offset (V)
ACHFILTER	IQUANT	1	Ach Filter
IERANGELOWERLIMIT	IQUANT	1	I/E Range Lower Limit
IERANGEMODE	TOGGLE	F	I/E AutoRange
IERANGE	IQUANT	10	I/E Range
POSFEEDENABLE	TOGGLE	F	Positive Feedback IR Comp
POSFEEDRESISTANCE	QUANT	0	Positive Feedback Resistance (ohm)
ACHSELECT	IQUANT	0	Ach Select
CABLEID	IQUANT	14	Cable ID
DCCALDATE	LABEL	11/5/2019	DC Calibration Date
ACCALDATE	LABEL		AC Calibration Date
THERMOSELECT	IQUANT	1	Thermo Select
FRAMEWORKVERSION	QUANT	6.12	Framework Version
INSTRUMENTVERSION	LABEL	3.11	Instrument Version
EXPERIMENTABORTED	TOGGLE	T	Experiment Aborted
CURVE	TABLE	2436
	Pt	T	Vf	Im	Vu	Sig	Ach	IERange	Over	Cycle
	#	s	V vs. Ref.	A	V	V	V	#	bits	#
	0	0.02	-1.39843E-001	-4.95674E-006	0.00000E+000	-1.39800E-001	6.49627E-005	10	...........	0
	5	0.12	-1.34831E-001	-4.93005E-006	0.00000E+000	-1.34800E-001	6.38785E-005	10	...........	0
	10	0.22	-1.29717E-001	-3.87914E-006	0.00000E+000	-1.29800E-001	6.13764E-005	10	...........	0
	15	0.32	-1.24798E-001	-4.96341E-006	0.00000E+000	-1.24800E-001	6.07092E-005	10	...........	0
	20	0.42	-1.19777E-001	-5.23365E-006	0.00000E+000	-1.19800E-001	6.28776E-005	10	...........	0
	25	0.52	-1.14812E-001	-4.90003E-006	0.00000E+000	-1.14800E-001	6.48793E-005	10	...........	0
	30	0.62	-1.09745E-001	-4.18941E-006	0.00000E+000	-1.09800E-001	5.94582E-005	10	...........	0
	35	0.72	-1.04779E-001	-5.19028E-006	0.00000E+000	-1.04800E-001	6.23772E-005	10	...........	0
	40	0.82	-9.98306E-002	-4.77658E-006	0.00000E+000	-9.98000E-002	6.64639E-005	10	...........	0
	45	0.92	-9.48718E-002	-5.35208E-006	0.00000E+000	-9.48000E-002	6.21270E-005	10	...........	0
	50	1.02	-8.98071E-002	-4.18607E-006	0.00000E+000	-8.98000E-002	5.66225E-005	10	...........	0
	55	1.12	-8.48113E-002	-5.19528E-006	0.00000E+000	-8.48000E-002	5.77067E-005	10	...........	0
	60	1.22	-7.97059E-002	-4.95174E-006	0.00000E+000	-7.98000E-002	6.47125E-005	10	...........	0
	65	1.32	-7.48046E-002	-4.67816E-006	0.00000E+000	-7.48000E-002	6.21270E-005	10	...........	0
	70	1.42	-6.97858E-002	-3.29529E-006	0.00000E+000	-6.98000E-002	6.42121E-005	10	...........	0
	75	1.52	-6.48829E-002	-5.26701E-006	0.00000E+000	-6.48000E-002	6.00420E-005	10	...........	0
	80	1.62	-5.98426E-002	-4.20776E-006	0.00000E+000	-5.98000E-002	6.53797E-005	10	...........	0
	85	1.72	-5.49088E-002	-4.06430E-006	0.00000E+000	-5.48000E-002	6.61303E-005	10	...........	0
	90	1.82	-4.98408E-002	-3.57554E-006	0.00000E+000	-4.98000E-002	6.71311E-005	10	...........	0
	95	1.92	-4.48734E-002	-4.29116E-006	0.00000E+000	-4.48000E-002	5.82072E-005	10	...........	0
	100	2.02	-3.98976E-002	-4.31618E-006	0.00000E+000	-3.98000E-002	6.38785E-005	10	...........	0
	105	2.12	-3.48343E-002	-4.27615E-006	0.00000E+000	-3.48000E-002	6.50461E-005	10	...........	0
	110	2.22	-2.98195E-002	-4.48299E-006	0.00000E+000	-2.98000E-002	6.67975E-005	10	...........	0
	115	2.32	-2.48589E-002	-4.46298E-006	0.00000E+000	-2.48000E-002	5.83740E-005	10	...........	0
	120	2.42	-1.98769E-002	-4.77658E-006	0.00000E+000	-1.98000E-002	6.66307E-005	10	...........	0
	125	2.52	-1.49161E-002	-4.59142E-006	0.00000E+000	-1.48000E-002	5.82906E-005	10	...........	0
	130	2.62	-9.93440E-003	-5.15191E-006	0.00000E+000	-9.80000E-003	6.14598E-005	10	...........	0
	135	2.72	-4.87793E-003	-5.01512E-006	0.00000E+000	-4.80000E-003	5.60387E-005	10	...........	0
	140	2.82	2.11983E-004	-5.12355E-006	0.00000E+000	2.00003E-004	6.37117E-005	10	...........	0
	145	2.92	5.12325E-003	-3.60556E-006	0.00000E+000	5.20000E-003	6.47959E-005	10	...........	0
	150	3.02	1.00310E-002	-5.14857E-006	0.00000E+000	1.02000E-002	6.62137E-005	10	...........	0
	155	3.12	1.51140E-002	-4.69651E-006	0.00000E+000	1.52000E-002	6.22104E-005	10	...........	0
	160	3.22	2.00473E-002	-4.64147E-006	0.00000E+000	2.02000E-002	5.43707E-005	10	...........	0
	165	3.32	2.50338E-002	-3.41540E-006	0.00000E+000	2.52000E-002	5.86242E-005	10	...........	0
	170	3.42	2.99678E-002	-4.97342E-006	0.00000E+000	3.02000E-002	6.54631E-005	10	...........	0
	175	3.52	3.49778E-002	-4.53971E-006	0.00000E+000	3.52000E-002	6.53797E-005	10	...........	0
	180	3.62	4.02505E-002	-4.50301E-006	0.00000E+000	4.02000E-002	6.25440E-005	10	...........	0
	185	3.72	4.51692E-002	-2.81488E-006	0.00000E+000	4.52000E-002	6.41287E-005	10	...........	0
	190	3.82	5.00172E-002	-4.78659E-006	0.00000E+000	5.02000E-002	6.63805E-005	10	...........	0
	195	3.92	5.50358E-002	-4.63813E-006	0.00000E+000	5.52000E-002	6.09594E-005	10	...........	0
	200	4.02	6.00133E-002	-4.60644E-006	0.00000E+000	6.02000E-002	6.21270E-005	10	...........	0
	205	4.12	6.49397E-002	-4.39625E-006	0.00000E+000	6.52000E-002	6.48793E-005	10	...........	0
	210	4.22	6.98641E-002	-4.73655E-006	0.00000E+000	7.02000E-002	7.03004E-005	10	...........	0
	215	4.32	7.50102E-002	-4.92004E-006	0.00000E+000	7.52000E-002	6.58801E-005	10	...........	0
	220	4.42	7.99743E-002	-4.86166E-006	0.00000E+000	8.02000E-002	5.48711E-005	10	...........	0
	225	4.52	8.50455E-002	-4.82830E-006	0.00000E+000	8.52000E-002	6.33781E-005	10	...........	0
	230	4.62	8.99849E-002	-4.79493E-006	0.00000E+000	9.02000E-002	6.35449E-005	10	...........	0
	235	4.72	9.50112E-002	-4.71653E-006	0.00000E+000	9.52000E-002	6.57967E-005	10	...........	0
	240	4.82	1.00017E-001	-3.09679E-006	0.00000E+000	1.00200E-001	5.83740E-005	10	...........	0
	245	4.92	1.04957E-001	-4.49300E-006	0.00000E+000	1.05200E-001	7.12178E-005	10	...........	0
	250	5.02	1.09879E-001	-4.34955E-006	0.00000E+000	1.10200E-001	6.42955E-005	10	...........	0
	255	5.12	1.14900E-001	-4.41627E-006	0.00000E+000	1.15200E-001	6.44623E-005	10	...........	0
	260	5.22	1.19970E-001	-4.38624E-006	0.00000E+000	1.20200E-001	5.62889E-005	10	...........	0
	265	5.32	1.25140E-001	-2.96667E-006	0.00000E+000	1.25200E-001	5.73731E-005	10	...........	0
	270	5.42	1.29983E-001	-4.75323E-006	0.00000E+000	1.30200E-001	6.22104E-005	10	...........	0
	275	5.52	1.34942E-001	-4.25947E-006	0.00000E+000	1.35200E-001	7.70559E-005	10	...........	0
	280	5.62	1.39911E-001	-4.53971E-006	0.00000E+000	1.40200E-001	6.64639E-005	10	...........	0
	285	5.72	1.44948E-001	-2.29442E-006	0.00000E+000	1.45200E-001	5.87076E-005	10	...........	0
	290	5.82	1.49815E-001	-3.88581E-006	0.00000E+000	1.50200E-001	6.69643E-005	10	...........	0
	295	5.92	1.54871E-001	-4.10100E-006	0.00000E+000	1.55200E-001	6.92162E-005	10	...........	0
	300	6.02	1.59911E-001	-4.04261E-006	0.00000E+000	1.60200E-001	6.53797E-005	10	...........	0
	305	6.12	1.64980E-001	-2.46290E-006	0.00000E+000	1.65200E-001	6.59635E-005	10	...........	0
	310	6.22	1.69967E-001	-4.43962E-006	0.00000E+000	1.70200E-001	6.72979E-005	10	...........	0
	315	6.32	1.74925E-001	-4.00591E-006	0.00000E+000	1.75200E-001	7.28024E-005	10	...........	0
	320	6.42	1.79937E-001	-3.89415E-006	0.00000E+000	1.80200E-001	7.04672E-005	10	...........	0
	325	6.52	1.84946E-001	-2.66141E-006	0.00000E+000	1.85200E-001	6.93830E-005	10	...........	0
	330	6.62	1.89827E-001	-4.49467E-006	0.00000E+000	1.90200E-001	6.71311E-005	10	...........	0
	335	6.72	1.94753E-001	-4.56140E-006	0.00000E+000	1.95200E-001	6.96332E-005	10	...........	0
	340	6.82	1.99944E-001	-4.38124E-006	0.00000E+000	2.00200E-001	6.61303E-005	10	...........	0
	345	6.92	2.05012E-001	-4.07264E-006	0.00000E+000	2.05200E-001	7.24688E-005	10	...........	0
	350	7.02	2.09936E-001	-4.58809E-006	0.00000E+000	2.10200E-001	6.90494E-005	10	...........	0
	355	7.12	2.14848E-001	-4.27615E-006	0.00000E+000	2.15200E-001	7.23854E-005	10	...........	0
	360	7.22	2.19933E-001	-3.84577E-006	0.00000E+000	2.20200E-001	6.32113E-005	10	...........	0
	365	7.32	2.24850E-001	-4.31285E-006	0.00000E+000	2.25200E-001	6.02088E-005	10	...........	0
	370	7.42	2.29786E-001	-4.00758E-006	0.00000E+000	2.30200E-001	6.17934E-005	10	...........	0
	375	7.52	2.34773E-001	-4.43295E-006	0.00000E+000	2.35200E-001	6.24606E-005	10	...........	0
	380	7.62	2.39840E-001	-2.79152E-006	0.00000E+000	2.40200E-001	5.47043E-005	10	...........	0
	385	7.72	2.45018E-001	-4.34454E-006	0.00000E+000	2.45200E-001	5.59553E-005	10	...........	0
	390	7.82	2.49951E-001	-4.15104E-006	0.00000E+000	2.50200E-001	6.07092E-005	10	...........	0
	395	7.92	2.54833E-001	-4.17773E-006	0.00000E+000	2.55200E-001	6.56299E-005	10	...........	0
	400	8.02	2.59895E-001	-2.67475E-006	0.00000E+000	2.60200E-001	5.67059E-005	10	...........	0
	405	8.12	2.64812E-001	-4.07264E-006	0.00000E+000	2.65200E-001	5.60387E-005	10	...........	0
	410	8.22	2.69730E-001	-3.95420E-006	0.00000E+000	2.70200E-001	6.62137E-005	10	...........	0
	415	8.32	2.74693E-001	-3.85745E-006	0.00000E+000	2.75200E-001	6.73813E-005	10	...........	0
	420	8.42	2.79856E-001	-2.22770E-006	0.00000E+000	2.80200E-001	5.98752E-005	10	...........	0
	425	8.52	2.84774E-001	-3.73234E-006	0.00000E+000	2.85200E-001	6.14598E-005	10	...........	0
	430	8.62	2.89861E-001	-3.53050E-006	0.00000E+000	2.90200E-001	6.29610E-005	10	...........	0
	435	8.72	2.94799E-001	-3.23524E-006	0.00000E+000	2.95200E-001	5.92914E-005	10	...........	0
	440	8.82	2.99825E-001	-3.39872E-006	0.00000E+000	3.00200E-001	6.30444E-005	10	...........	0
	445	8.92	3.04792E-001	-3.91750E-006	0.00000E+000	3.05200E-001	5.86242E-005	10	...........	0
	450	9.02	3.09763E-001	-3.63059E-006	0.00000E+000	3.10200E-001	6.84655E-005	10	...........	0
	455	9.12	3.14716E-001	-3.55218E-006	0.00000E+000	3.15200E-001	6.46291E-005	10	...........	0
	460	9.22	3.19711E-001	-3.29696E-006	0.00000E+000	3.20200E-001	6.82153E-005	10	...........	0
	465	9.32	3.24773E-001	-3.63726E-006	0.00000E+000	3.25200E-001	5.63723E-005	10	...........	0
	470	9.42	3.29924E-001	-3.65394E-006	0.00000E+000	3.30200E-001	5.81238E-005	10	...........	0
	475	9.52	3.34812E-001	-1.88240E-006	0.00000E+000	3.35200E-001	6.20436E-005	10	...........	0
	480	9.62	3.39760E-001	-3.60056E-006	0.00000E+000	3.40200E-001	6.32947E-005	10	...........	0
	485	9.72	3.44719E-001	-3.13682E-006	0.00000E+000	3.45200E-001	5.85408E-005	10	...........	0
	490	9.82	3.49737E-001	-3.29696E-006	0.00000E+000	3.50200E-001	6.50461E-005	10	...........	0
	495	9.92	3.54695E-001	-1.60716E-006	0.00000E+000	3.55200E-001	6.13764E-005	10	...........	0
	500	10.02	3.59696E-001	-3.62391E-006	0.00000E+000	3.60200E-001	7.33862E-005	10	...........	0
	505	10.12	3.64707E-001	-3.16685E-006	0.00000E+000	3.65200E-001	6.70477E-005	10	...........	0
	510	10.22	3.69727E-001	-3.42207E-006	0.00000E+000	3.70200E-001	6.43789E-005	10	...........	0
	515	10.32	3.74796E-001	-2.02752E-006	0.00000E+000	3.75200E-001	5.80404E-005	10	...........	0
	520	10.42	3.79752E-001	-3.27361E-006	0.00000E+000	3.80200E-001	6.71311E-005	10	...........	0
	525	10.52	3.84737E-001	-2.89995E-006	0.00000E+000	3.85200E-001	6.52129E-005	10	...........	0
	530	10.62	3.89718E-001	-3.15350E-006	0.00000E+000	3.90200E-001	6.68809E-005	10	...........	0
	535	10.72	3.94646E-001	-2.89161E-006	0.00000E+000	3.95200E-001	6.97166E-005	10	...........	0
	540	10.82	3.99580E-001	-3.55719E-006	0.00000E+000	4.00200E-001	6.57133E-005	10	...........	0
	545	10.92	4.04762E-001	-3.51215E-006	0.00000E+000	4.05200E-001	6.26274E-005	10	...........	0
	550	11.02	4.09853E-001	-2.97001E-006	0.00000E+000	4.10200E-001	5.91246E-005	10	...........	0
	555	11.12	4.14746E-001	-3.14516E-006	0.00000E+000	4.15200E-001	6.42121E-005	10	...........	0
	560	11.22	4.19654E-001	-3.68397E-006	0.00000E+000	4.20200E-001	6.55465E-005	10	...........	0
	565	11.32	4.24732E-001	-3.20688E-006	0.00000E+000	4.25200E-001	5.69561E-005	10	...........	0
	570	11.42	4.29706E-001	-1.79566E-006	0.00000E+000	4.30200E-001	5.93748E-005	10	...........	0
	575	11.52	4.34584E-001	-3.16184E-006	0.00000E+000	4.35200E-001	6.52963E-005	10	...........	0
	580	11.62	4.39570E-001	-3.52716E-006	0.00000E+000	4.40200E-001	6.40453E-005	10	...........	0
	585	11.72	4.44603E-001	-3.75069E-006	0.00000E+000	4.45200E-001	6.67975E-005	10	...........	0
	590	11.82	4.49898E-001	-2.03420E-006	0.00000E+000	4.50200E-001	5.83740E-005	10	...........	0
	595	11.92	4.54754E-001	-3.53217E-006	0.00000E+000	4.55200E-001	6.11262E-005	10	...........	0
	600	12.02	4.59629E-001	-3.65561E-006	0.00000E+000	4.60200E-001	5.55383E-005	10	...........	0
	605	12.12	4.64669E-001	-3.45210E-006	0.00000E+000	4.65200E-001	6.32947E-005	10	...........	0
	610	12.22	4.69669E-001	-1.97248E-006	0.00000E+000	4.70200E-001	5.88744E-005	10	...........	0
	615	12.32	4.74536E-001	-3.49880E-006	0.00000E+000	4.75200E-001	6.33781E-005	10	...........	0
	620	12.42	4.79488E-001	-3.32198E-006	0.00000E+000	4.80200E-001	6.37951E-005	10	...........	0
	625	12.52	4.84641E-001	-3.26694E-006	0.00000E+000	4.85200E-001	5.87076E-005	10	...........	0
	630	12.62	4.89577E-001	-3.67396E-006	0.00000E+000	4.90200E-001	5.40371E-005	10	...........	0
	635	12.72	4.94668E-001	-3.60723E-006	0.00000E+000	4.95200E-001	6.12930E-005	10	...........	0
	640	12.82	4.99595E-001	-3.69898E-006	0.00000E+000	5.00200E-001	6.17100E-005	10	...........	0
	645	12.92	5.04638E-001	-3.03840E-006	0.00000E+000	5.05200E-001	5.88744E-005	10	...........	0
	650	13.02	5.09595E-001	-3.79073E-006	0.00000E+000	5.10200E-001	5.80404E-005	10	...........	0
	655	13.12	5.14553E-001	-3.91417E-006	0.00000E+000	5.15200E-001	6.67975E-005	10	...........	0
	660	13.22	5.19511E-001	-3.23691E-006	0.00000E+000	5.20200E-001	6.37951E-005	10	...........	0
	665	13.32	5.24569E-001	-1.46704E-006	0.00000E+000	5.25200E-001	5.71229E-005	10	...........	0
	670	13.42	5.29576E-001	-3.45043E-006	0.00000E+000	5.30200E-001	5.64557E-005	10	...........	0
	675	13.52	5.34708E-001	-3.62558E-006	0.00000E+000	5.35200E-001	5.85408E-005	10	...........	0
	680	13.62	5.39581E-001	-3.67729E-006	0.00000E+000	5.40200E-001	5.86242E-005	10	...........	0
	685	13.72	5.44604E-001	-1.56879E-006	0.00000E+000	5.45200E-001	6.28776E-005	10	...........	0
	690	13.82	5.49521E-001	-3.82242E-006	0.00000E+000	5.50200E-001	5.44541E-005	10	...........	0
	695	13.92	5.54531E-001	-3.54384E-006	0.00000E+000	5.55200E-001	6.72979E-005	10	...........	0
	700	14.02	5.59427E-001	-3.22857E-006	0.00000E+000	5.60200E-001	6.18768E-005	10	...........	0
	705	14.12	5.64547E-001	-2.37783E-006	0.00000E+000	5.65200E-001	6.10428E-005	10	...........	0
	710	14.22	5.69506E-001	-3.19854E-006	0.00000E+000	5.70200E-001	5.97918E-005	10	...........	0
	715	14.32	5.74513E-001	-3.64727E-006	0.00000E+000	5.75200E-001	6.18768E-005	10	...........	0
	720	14.42	5.79563E-001	-3.07677E-006	0.00000E+000	5.80200E-001	5.32031E-005	10	...........	0
	725	14.52	5.84558E-001	-3.72734E-006	0.00000E+000	5.85200E-001	6.27108E-005	10	...........	0
	730	14.62	5.89534E-001	-3.56052E-006	0.00000E+000	5.90200E-001	5.99586E-005	10	...........	0
	735	14.72	5.94513E-001	-3.32032E-006	0.00000E+000	5.95200E-001	6.07926E-005	10	...........	0
	740	14.82	5.99456E-001	-3.06009E-006	0.00000E+000	6.00200E-001	6.27108E-005	10	...........	0
	745	14.92	6.04373E-001	-3.62058E-006	0.00000E+000	6.05200E-001	6.09594E-005	10	...........	0
	750	15.02	6.09538E-001	-3.19854E-006	0.00000E+000	6.10200E-001	5.01172E-005	10	...........	0
	755	15.12	6.14620E-001	-3.07343E-006	0.00000E+000	6.15200E-001	5.94582E-005	10	...........	0
	760	15.22	6.19563E-001	-2.11927E-006	0.00000E+000	6.20200E-001	5.41205E-005	10	...........	0
	765	15.32	6.24459E-001	-3.57053E-006	0.00000E+000	6.25200E-001	6.34615E-005	10	...........	0
	770	15.42	6.29519E-001	-3.41540E-006	0.00000E+000	6.30200E-001	5.82072E-005	10	...........	0
	775	15.52	6.34460E-001	-3.70232E-006	0.00000E+000	6.35200E-001	6.26274E-005	10	...........	0
	780	15.62	6.39437E-001	-1.55044E-006	0.00000E+000	6.40200E-001	5.25359E-005	10	...........	0
	785	15.72	6.44388E-001	-3.78072E-006	0.00000E+000	6.45200E-001	6.46291E-005	10	...........	0
	790	15.82	6.49387E-001	-3.55552E-006	0.00000E+000	6.50200E-001	5.98752E-005	10	...........	0
	795	15.92	6.54617E-001	-3.50214E-006	0.00000E+000	6.55200E-001	4.98670E-005	10	...........	0
	800	16.02	6.59554E-001	-1.76396E-006	0.00000E+000	6.60200E-001	5.08678E-005	10	...........	0
	805	16.12	6.64430E-001	-2.90829E-006	0.00000E+000	6.65200E-001	6.45457E-005	10	...........	0
	810	16.22	6.69453E-001	-3.25359E-006	0.00000E+000	6.70200E-001	5.90412E-005	10	...........	0
	815	16.32	6.74433E-001	-2.95333E-006	0.00000E+000	6.75200E-001	5.79570E-005	10	...........	0
	820	16.42	6.79344E-001	-3.40039E-006	0.00000E+000	6.80200E-001	6.40453E-005	10	...........	0
	825	16.52	6.84280E-001	-3.39705E-006	0.00000E+000	6.85200E-001	6.04590E-005	10	...........	0
	830	16.62	6.89440E-001	-3.42874E-006	0.00000E+000	6.90200E-001	6.21270E-005	10	...........	0
	835	16.72	6.94404E-001	-3.10346E-006	0.00000E+000	6.95200E-001	5.72897E-005	10	...........	0
	840	16.82	6.99469E-001	-3.80240E-006	0.00000E+000	7.00200E-001	5.90412E-005	10	...........	0
	845	16.92	6.94395E-001	-3.45877E-006	0.00000E+000	6.95200E-001	5.73731E-005	10	...........	0
	850	17.02	6.89464E-001	-3.47545E-006	0.00000E+000	6.90200E-001	6.31278E-005	10	...........	0
	855	17.12	6.84394E-001	-2.25439E-006	0.00000E+000	6.85200E-001	5.07844E-005	10	...........	0
	860	17.22	6.79364E-001	-3.33867E-006	0.00000E+000	6.80200E-001	6.77983E-005	10	...........	0
	865	17.32	6.74438E-001	-3.29863E-006	0.00000E+000	6.75200E-001	5.96250E-005	10	...........	0
	870	17.42	6.69483E-001	-3.01505E-006	0.00000E+000	6.70200E-001	6.22104E-005	10	...........	0
	875	17.52	6.64507E-001	-1.51041E-006	0.00000E+000	6.65200E-001	6.40453E-005	10	...........	0
	880	17.62	6.59565E-001	-3.55719E-006	0.00000E+000	6.60200E-001	6.21270E-005	10	...........	0
	885	17.72	6.54601E-001	-4.00258E-006	0.00000E+000	6.55200E-001	5.87076E-005	10	...........	0
	890	17.82	6.49418E-001	-3.85578E-006	0.00000E+000	6.50200E-001	6.11262E-005	10	...........	0
	895	17.92	6.44489E-001	-2.49960E-006	0.00000E+000	6.45200E-001	6.33781E-005	10	...........	0
	900	18.02	6.39399E-001	-3.71399E-006	0.00000E+000	6.40200E-001	6.73813E-005	10	...........	0
	905	18.12	6.34475E-001	-3.64393E-006	0.00000E+000	6.35200E-001	5.51213E-005	10	...........	0
	910	18.22	6.29549E-001	-3.89248E-006	0.00000E+000	6.30200E-001	5.20354E-005	10	...........	0
	915	18.32	6.24479E-001	-3.59389E-006	0.00000E+000	6.25200E-001	6.15432E-005	10	...........	0
	920	18.42	6.19559E-001	-3.48046E-006	0.00000E+000	6.20200E-001	5.86242E-005	10	...........	0
	925	18.52	6.14630E-001	-3.50381E-006	0.00000E+000	6.15200E-001	6.01254E-005	10	...........	0
	930	18.62	6.09577E-001	-3.65227E-006	0.00000E+000	6.10200E-001	5.37035E-005	10	...........	0
	935	18.72	6.04394E-001	-3.79073E-006	0.00000E+000	6.05200E-001	6.02088E-005	10	...........	0
	940	18.82	5.99460E-001	-3.24692E-006	0.00000E+000	6.00200E-001	5.98752E-005	10	...........	0
	945	18.92	5.94535E-001	-3.73401E-006	0.00000E+000	5.95200E-001	6.45457E-005	10	...........	0
	950	19.02	5.89581E-001	-2.04921E-006	0.00000E+000	5.90200E-001	6.16266E-005	10	...........	0
	955	19.12	5.84578E-001	-4.07931E-006	0.00000E+000	5.85200E-001	6.38785E-005	10	...........	0
	960	19.22	5.79579E-001	-3.71900E-006	0.00000E+000	5.80200E-001	5.31197E-005	10	...........	0
	965	19.32	5.74536E-001	-3.73067E-006	0.00000E+000	5.75200E-001	6.07092E-005	10	...........	0
	970	19.42	5.69606E-001	-1.98415E-006	0.00000E+000	5.70200E-001	6.10428E-005	10	...........	0
	975	19.52	5.64518E-001	-3.59055E-006	0.00000E+000	5.65200E-001	6.31278E-005	10	...........	0
	980	19.62	5.59433E-001	-3.75236E-006	0.00000E+000	5.60200E-001	6.31278E-005	10	...........	0
	985	19.72	5.54566E-001	-3.70732E-006	0.00000E+000	5.55200E-001	5.50379E-005	10	...........	0
	990	19.82	5.49600E-001	-1.98916E-006	0.00000E+000	5.50200E-001	5.55383E-005	10	...........	0
	995	19.92	5.44570E-001	-3.58721E-006	0.00000E+000	5.45200E-001	6.36283E-005	10	...........	0
	1000	20.02	5.39599E-001	-4.08932E-006	0.00000E+000	5.40200E-001	6.35449E-005	10	...........	0
	1005	20.12	5.34740E-001	-4.00758E-006	0.00000E+000	5.35200E-001	6.36283E-005	10	...........	0
	1010	20.22	5.29600E-001	-3.74569E-006	0.00000E+000	5.30200E-001	5.64557E-005	10	...........	0
	1015	20.32	5.24523E-001	-3.25026E-006	0.00000E+000	5.25200E-001	6.68809E-005	10	...........	0
	1020	20.42	5.19527E-001	-4.08265E-006	0.00000E+000	5.20200E-001	6.49627E-005	10	...........	0
	1025	20.52	5.14586E-001	-3.23191E-006	0.00000E+000	5.15200E-001	5.96250E-005	10	...........	0
	1030	20.62	5.09617E-001	-3.65728E-006	0.00000E+000	5.10200E-001	5.34533E-005	10	...........	0
	1035	20.72	5.04643E-001	-3.94920E-006	0.00000E+000	5.05200E-001	5.82906E-005	10	...........	0
	1040	20.82	4.99618E-001	-4.10934E-006	0.00000E+000	5.00200E-001	6.22104E-005	10	...........	0
	1045	20.92	4.94731E-001	-2.24938E-006	0.00000E+000	4.95200E-001	5.73731E-005	10	...........	0
	1050	21.02	4.89619E-001	-3.76570E-006	0.00000E+000	4.90200E-001	5.40371E-005	10	...........	0
	1055	21.12	4.84649E-001	-3.60556E-006	0.00000E+000	4.85200E-001	6.54631E-005	10	...........	0
	1060	21.22	4.79509E-001	-3.70232E-006	0.00000E+000	4.80200E-001	6.42121E-005	10	...........	0
	1065	21.32	4.74584E-001	-2.32779E-006	0.00000E+000	4.75200E-001	6.08760E-005	10	...........	0
	1070	21.42	4.69633E-001	-3.79573E-006	0.00000E+000	4.70200E-001	5.91246E-005	10	...........	0
	1075	21.52	4.64663E-001	-4.07431E-006	0.00000E+000	4.65200E-001	6.27108E-005	10	...........	0
	1080	21.62	4.59662E-001	-3.61224E-006	0.00000E+000	4.60200E-001	5.89578E-005	10	...........	0
	1085	21.72	4.54775E-001	-2.75482E-006	0.00000E+000	4.55200E-001	4.99504E-005	10	...........	0
	1090	21.82	4.49842E-001	-4.21943E-006	0.00000E+000	4.50200E-001	5.80404E-005	10	...........	0
	1095	21.92	4.44613E-001	-4.00591E-006	0.00000E+000	4.45200E-001	6.86324E-005	10	...........	0
	1100	22.02	4.39616E-001	-4.23945E-006	0.00000E+000	4.40200E-001	6.24606E-005	10	...........	0
	1105	22.12	4.34607E-001	-4.44630E-006	0.00000E+000	4.35200E-001	6.67141E-005	10	...........	0
	1110	22.22	4.29672E-001	-4.31618E-006	0.00000E+000	4.30200E-001	6.34615E-005	10	...........	0
	1115	22.32	4.24744E-001	-4.17439E-006	0.00000E+000	4.25200E-001	5.98752E-005	10	...........	0
	1120	22.42	4.19697E-001	-3.38037E-006	0.00000E+000	4.20200E-001	6.48793E-005	10	...........	0
	1125	22.52	4.14754E-001	-4.31952E-006	0.00000E+000	4.15200E-001	6.91328E-005	10	...........	0
	1130	22.62	4.09809E-001	-4.42294E-006	0.00000E+000	4.10200E-001	6.34615E-005	10	...........	0
	1135	22.72	4.04764E-001	-4.24946E-006	0.00000E+000	4.05200E-001	5.57051E-005	10	...........	0
	1140	22.82	3.99692E-001	-2.51295E-006	0.00000E+000	4.00200E-001	6.48793E-005	10	...........	0
	1145	22.92	3.94653E-001	-4.42127E-006	0.00000E+000	3.95200E-001	6.12096E-005	10	...........	0
	1150	23.02	3.89726E-001	-3.87747E-006	0.00000E+000	3.90200E-001	6.65473E-005	10	...........	0
	1155	23.12	3.84758E-001	-4.21443E-006	0.00000E+000	3.85200E-001	5.97084E-005	10	...........	0
	1160	23.22	3.79839E-001	-2.65807E-006	0.00000E+000	3.80200E-001	5.54549E-005	10	...........	0
	1165	23.32	3.74784E-001	-4.32286E-006	0.00000E+000	3.75200E-001	6.16266E-005	10	...........	0
	1170	23.42	3.69715E-001	-4.20942E-006	0.00000E+000	3.70200E-001	6.55465E-005	10	...........	0
	1175	23.52	3.64735E-001	-4.46465E-006	0.00000E+000	3.65200E-001	5.21188E-005	10	...........	0
	1180	23.62	3.59764E-001	-3.34367E-006	0.00000E+000	3.60200E-001	6.05424E-005	10	...........	0
	1185	23.72	3.54635E-001	-4.15271E-006	0.00000E+000	3.55200E-001	6.52963E-005	10	...........	0
	1190	23.82	3.49759E-001	-4.18607E-006	0.00000E+000	3.50200E-001	6.27108E-005	10	...........	0
	1195	23.92	3.44747E-001	-4.26447E-006	0.00000E+000	3.45200E-001	5.82906E-005	10	...........	0
	1200	24.02	3.39778E-001	-4.41961E-006	0.00000E+000	3.40200E-001	6.52963E-005	10	...........	0
	1205	24.12	3.34801E-001	-4.38624E-006	0.00000E+000	3.35200E-001	6.19602E-005	10	...........	0
	1210	24.22	3.29937E-001	-4.11768E-006	0.00000E+000	3.30200E-001	6.50461E-005	10	...........	0
	1215	24.32	3.24802E-001	-3.93919E-006	0.00000E+000	3.25200E-001	5.74565E-005	10	...........	0
	1220	24.42	3.19726E-001	-4.22444E-006	0.00000E+000	3.20200E-001	7.00502E-005	10	...........	0
	1225	24.52	3.14715E-001	-4.33286E-006	0.00000E+000	3.15200E-001	5.95416E-005	10	...........	0
	1230	24.62	3.09780E-001	-4.17773E-006	0.00000E+000	3.10200E-001	6.67975E-005	10	...........	0
	1235	24.72	3.04860E-001	-2.72146E-006	0.00000E+000	3.05200E-001	5.09512E-005	10	...........	0
	1240	24.82	2.99842E-001	-4.13102E-006	0.00000E+000	3.00200E-001	6.42955E-005	10	...........	0
	1245	24.92	2.94811E-001	-4.14603E-006	0.00000E+000	2.95200E-001	6.19602E-005	10	...........	0
	1250	25.02	2.89897E-001	-3.73735E-006	0.00000E+000	2.90200E-001	6.14598E-005	10	...........	0
	1255	25.12	2.84909E-001	-2.17599E-006	0.00000E+000	2.85200E-001	5.62889E-005	10	...........	0
	1260	25.22	2.79845E-001	-3.88247E-006	0.00000E+000	2.80200E-001	6.63805E-005	10	...........	0
	1265	25.32	2.74702E-001	-3.64894E-006	0.00000E+000	2.75200E-001	6.38785E-005	10	...........	0
	1270	25.42	2.69757E-001	-3.82909E-006	0.00000E+000	2.70200E-001	5.53715E-005	10	...........	0
	1275	25.52	2.64851E-001	-3.10346E-006	0.00000E+000	2.65200E-001	5.95416E-005	10	...........	0
	1280	25.62	2.59857E-001	-4.29450E-006	0.00000E+000	2.60200E-001	5.87910E-005	10	...........	0
	1285	25.72	2.54834E-001	-3.58388E-006	0.00000E+000	2.55200E-001	5.15350E-005	10	...........	0
	1290	25.82	2.49974E-001	-3.64393E-006	0.00000E+000	2.50200E-001	5.48711E-005	10	...........	0
	1295	25.92	2.45051E-001	-3.62892E-006	0.00000E+000	2.45200E-001	5.72063E-005	10	...........	0
	1300	26.02	2.39798E-001	-3.78739E-006	0.00000E+000	2.40200E-001	6.05424E-005	10	...........	0
	1305	26.12	2.34781E-001	-4.35789E-006	0.00000E+000	2.35200E-001	5.83740E-005	10	...........	0
	1310	26.22	2.29808E-001	-3.61391E-006	0.00000E+000	2.30200E-001	5.56217E-005	10	...........	0
	1315	26.32	2.24863E-001	-4.44630E-006	0.00000E+000	2.25200E-001	6.25440E-005	10	...........	0
	1320	26.42	2.19933E-001	-4.47799E-006	0.00000E+000	2.20200E-001	6.51295E-005	10	...........	0
	1325	26.52	2.14865E-001	-4.73154E-006	0.00000E+000	2.15200E-001	6.37951E-005	10	...........	0
	1330	26.62	2.09984E-001	-2.84490E-006	0.00000E+000	2.10200E-001	5.19520E-005	10	...........	0
	1335	26.72	2.05012E-001	-4.20942E-006	0.00000E+000	2.05200E-001	6.01254E-005	10	...........	0
	1340	26.82	1.99941E-001	-4.23945E-006	0.00000E+000	2.00200E-001	5.60387E-005	10	...........	0
	1345	26.92	1.94769E-001	-4.16105E-006	0.00000E+000	1.95200E-001	6.47125E-005	10	...........	0
	1350	27.02	1.89922E-001	-1.84570E-006	0.00000E+000	1.90200E-001	6.30444E-005	10	...........	0
	1355	27.12	1.84918E-001	-3.97755E-006	0.00000E+000	1.85200E-001	6.42955E-005	10	...........	0
	1360	27.22	1.79944E-001	-3.71232E-006	0.00000E+000	1.80200E-001	5.93748E-005	10	...........	0
	1365	27.32	1.74971E-001	-3.75903E-006	0.00000E+000	1.75200E-001	6.42955E-005	10	...........	0
	1370	27.42	1.70001E-001	-2.89161E-006	0.00000E+000	1.70200E-001	5.93748E-005	10	...........	0
	1375	27.52	1.64918E-001	-3.57387E-006	0.00000E+000	1.65200E-001	6.68809E-005	10	...........	0
	1380	27.62	1.59923E-001	-3.70732E-006	0.00000E+000	1.60200E-001	5.94582E-005	10	...........	0
	1385	27.72	1.54912E-001	-3.70565E-006	0.00000E+000	1.55200E-001	6.74647E-005	10	...........	0
	1390	27.82	1.49826E-001	-4.04595E-006	0.00000E+000	1.50200E-001	6.34615E-005	10	...........	0
	1395	27.92	1.44944E-001	-3.88414E-006	0.00000E+000	1.45200E-001	6.47125E-005	10	...........	0
	1400	28.02	1.39938E-001	-3.56052E-006	0.00000E+000	1.40200E-001	5.60387E-005	10	...........	0
	1405	28.12	1.34970E-001	-3.80407E-006	0.00000E+000	1.35200E-001	7.00502E-005	10	...........	0
	1410	28.22	1.29999E-001	-3.43041E-006	0.00000E+000	1.30200E-001	6.47125E-005	10	...........	0
	1415	28.32	1.25143E-001	-3.04174E-006	0.00000E+000	1.25200E-001	5.27027E-005	10	...........	0
	1420	28.42	1.19993E-001	-3.42874E-006	0.00000E+000	1.20200E-001	5.07010E-005	10	...........	0
	1425	28.52	1.14974E-001	-2.23604E-006	0.00000E+000	1.15200E-001	5.57051E-005	10	...........	0
	1430	28.62	1.09910E-001	-3.84244E-006	0.00000E+000	1.10200E-001	6.25440E-005	10	...........	0
	1435	28.72	1.04970E-001	-3.76070E-006	0.00000E+000	1.05200E-001	5.87076E-005	10	...........	0
	1440	28.82	1.00008E-001	-4.04094E-006	0.00000E+000	1.00200E-001	4.69479E-005	10	...........	0
	1445	28.92	9.50866E-002	-2.66975E-006	0.00000E+000	9.52000E-002	5.69561E-005	10	...........	0
	1450	29.02	9.00077E-002	-4.17272E-006	0.00000E+000	9.02000E-002	5.84574E-005	10	...........	0
	1455	29.12	8.50597E-002	-4.25446E-006	0.00000E+000	8.52000E-002	6.08760E-005	10	...........	0
	1460	29.22	7.99963E-002	-4.54638E-006	0.00000E+000	8.02000E-002	5.44541E-005	10	...........	0
	1465	29.32	7.50825E-002	-2.94666E-006	0.00000E+000	7.52000E-002	4.86160E-005	10	...........	0
	1470	29.42	6.98787E-002	-4.49300E-006	0.00000E+000	7.02000E-002	6.04590E-005	10	...........	0
	1475	29.52	6.49490E-002	-4.47799E-006	0.00000E+000	6.52000E-002	5.97084E-005	10	...........	0
	1480	29.62	6.00305E-002	-4.29617E-006	0.00000E+000	6.02000E-002	4.97836E-005	10	...........	0
	1485	29.72	5.50865E-002	-3.36035E-006	0.00000E+000	5.52000E-002	5.92080E-005	10	...........	0
	1490	29.82	5.00337E-002	-4.12268E-006	0.00000E+000	5.02000E-002	5.73731E-005	10	...........	0
	1495	29.92	4.51762E-002	-4.39125E-006	0.00000E+000	4.52000E-002	5.96250E-005	10	...........	0
	1500	30.02	4.02870E-002	-4.57641E-006	0.00000E+000	4.02000E-002	6.27108E-005	10	...........	0
	1505	30.12	3.50117E-002	-4.64147E-006	0.00000E+000	3.52000E-002	6.57133E-005	10	...........	0
	1510	30.22	2.99768E-002	-4.64313E-006	0.00000E+000	3.02000E-002	6.54631E-005	10	...........	0
	1515	30.32	2.50058E-002	-4.44796E-006	0.00000E+000	2.52000E-002	7.02170E-005	10	...........	0
	1520	30.42	2.00730E-002	-3.85411E-006	0.00000E+000	2.02000E-002	6.12096E-005	10	...........	0
	1525	30.52	1.51372E-002	-4.30284E-006	0.00000E+000	1.52000E-002	6.02088E-005	10	...........	0
	1530	30.62	1.00359E-002	-4.14770E-006	0.00000E+000	1.02000E-002	6.77983E-005	10	...........	0
	1535	30.72	5.10740E-003	-4.13769E-006	0.00000E+000	5.20000E-003	5.75399E-005	10	...........	0
	1540	30.82	2.58020E-004	-3.70565E-006	0.00000E+000	2.00003E-004	5.64557E-005	10	...........	0
	1545	30.92	-4.84365E-003	-4.32953E-006	0.00000E+000	-4.80000E-003	5.45375E-005	10	...........	0
	1550	31.02	-9.92431E-003	-4.33120E-006	0.00000E+000	-9.80000E-003	6.30444E-005	10	...........	0
	1555	31.12	-1.49131E-002	-4.37123E-006	0.00000E+000	-1.48000E-002	5.97084E-005	10	...........	0
	1560	31.22	-1.98152E-002	-2.89161E-006	0.00000E+000	-1.98000E-002	5.43707E-005	10	...........	0
	1565	31.32	-2.48421E-002	-4.34454E-006	0.00000E+000	-2.48000E-002	5.63723E-005	10	...........	0
	1570	31.42	-2.98083E-002	-3.86746E-006	0.00000E+000	-2.98000E-002	5.99586E-005	10	...........	0
	1575	31.52	-3.48218E-002	-4.56306E-006	0.00000E+000	-3.48000E-002	6.00420E-005	10	...........	0
	1580	31.62	-3.97540E-002	-1.96747E-006	0.00000E+000	-3.98000E-002	6.03756E-005	10	...........	0
	1585	31.72	-4.48531E-002	-4.44796E-006	0.00000E+000	-4.48000E-002	6.02088E-005	10	...........	0
	1590	31.82	-4.98732E-002	-4.71820E-006	0.00000E+000	-4.98000E-002	6.69643E-005	10	...........	0
	1595	31.92	-5.49167E-002	-4.48633E-006	0.00000E+000	-5.48000E-002	5.97918E-005	10	...........	0
	1600	32.02	-5.98104E-002	-3.89582E-006	0.00000E+000	-5.98000E-002	5.55383E-005	10	...........	0
	1605	32.12	-6.48629E-002	-4.65648E-006	0.00000E+000	-6.48000E-002	5.67893E-005	10	...........	0
	1610	32.22	-6.98236E-002	-4.34955E-006	0.00000E+000	-6.98000E-002	6.87158E-005	10	...........	0
	1615	32.32	-7.47923E-002	-4.16772E-006	0.00000E+000	-7.48000E-002	5.17018E-005	10	...........	0
	1620	32.42	-7.96704E-002	-4.28783E-006	0.00000E+000	-7.98000E-002	5.47043E-005	10	...........	0
	1625	32.52	-8.47274E-002	-2.77651E-006	0.00000E+000	-8.48000E-002	5.12014E-005	10	...........	0
	1630	32.62	-8.98659E-002	-4.48133E-006	0.00000E+000	-8.98000E-002	6.69643E-005	10	...........	0
	1635	32.72	-9.48598E-002	-4.11601E-006	0.00000E+000	-9.48000E-002	5.56217E-005	10	...........	0
	1640	32.82	-9.98059E-002	-4.11100E-006	0.00000E+000	-9.98000E-002	5.95416E-005	10	...........	0
	1645	32.92	-1.04714E-001	-2.67976E-006	0.00000E+000	-1.04800E-001	5.22856E-005	10	...........	0
	1650	33.02	-1.09771E-001	-4.30784E-006	0.00000E+000	-1.09800E-001	6.52129E-005	10	...........	0
	1655	33.12	-1.14784E-001	-4.03761E-006	0.00000E+000	-1.14800E-001	5.79570E-005	10	...........	0
	1660	33.22	-1.19737E-001	-4.12935E-006	0.00000E+000	-1.19800E-001	5.32031E-005	10	...........	0
	1665	33.32	-1.24661E-001	-3.20021E-006	0.00000E+000	-1.24800E-001	5.21188E-005	10	...........	0
	1670	33.42	-1.29742E-001	-4.03928E-006	0.00000E+000	-1.29800E-001	6.24606E-005	10	...........	0
	1675	33.52	-1.34836E-001	-4.39625E-006	0.00000E+000	-1.34800E-001	5.77901E-005	10	...........	0
	1680	33.62	-1.39828E-001	-4.15271E-006	0.00000E+000	-1.39800E-001	6.54631E-005	10	...........	0
	1685	33.72	-1.44697E-001	-2.84657E-006	0.00000E+000	-1.44800E-001	5.44541E-005	10	...........	0
	1690	33.82	-1.49724E-001	-4.65982E-006	0.00000E+000	-1.49800E-001	5.84574E-005	10	...........	0
	1695	33.92	-1.54733E-001	-4.50134E-006	0.00000E+000	-1.54800E-001	5.33699E-005	10	...........	0
	1700	34.02	-1.59632E-001	-4.46131E-006	0.00000E+000	-1.59800E-001	5.10346E-005	10	...........	0
	1705	34.12	-1.64615E-001	-4.01759E-006	0.00000E+000	-1.64800E-001	4.35285E-005	10	...........	0
	1710	34.22	-1.69786E-001	-4.88334E-006	0.00000E+000	-1.69800E-001	5.97918E-005	10	...........	0
	1715	34.32	-1.74763E-001	-4.83830E-006	0.00000E+000	-1.74800E-001	5.46209E-005	10	...........	0
	1720	34.42	-1.79769E-001	-4.31452E-006	0.00000E+000	-1.79800E-001	5.77067E-005	10	...........	0
	1725	34.52	-1.84713E-001	-4.97009E-006	0.00000E+000	-1.84800E-001	6.14598E-005	10	...........	0
	1730	34.62	-1.89672E-001	-4.71153E-006	0.00000E+000	-1.89800E-001	5.78736E-005	10	...........	0
	1735	34.72	-1.94731E-001	-4.75156E-006	0.00000E+000	-1.94800E-001	6.26274E-005	10	...........	0
	1740	34.82	-1.99661E-001	-4.58141E-006	0.00000E+000	-1.99800E-001	5.46209E-005	10	...........	0
	1745	34.92	-2.04608E-001	-5.01346E-006	0.00000E+000	-2.04800E-001	6.42955E-005	10	...........	0
	1750	35.02	-2.09663E-001	-5.16025E-006	0.00000E+000	-2.09800E-001	5.95416E-005	10	...........	0
	1755	35.12	-2.14732E-001	-4.92338E-006	0.00000E+000	-2.14800E-001	6.17100E-005	10	...........	0
	1760	35.22	-2.19661E-001	-3.55886E-006	0.00000E+000	-2.19800E-001	4.83658E-005	10	...........	0
	1765	35.32	-2.24662E-001	-4.74823E-006	0.00000E+000	-2.24800E-001	6.64639E-005	10	...........	0
	1770	35.42	-2.29653E-001	-4.68651E-006	0.00000E+000	-2.29800E-001	6.12930E-005	10	...........	0
	1775	35.52	-2.34615E-001	-5.01012E-006	0.00000E+000	-2.34800E-001	6.37117E-005	10	...........	0
	1780	35.62	-2.39571E-001	-3.56052E-006	0.00000E+000	-2.39800E-001	6.07926E-005	10	...........	0
	1785	35.72	-2.44690E-001	-4.94006E-006	0.00000E+000	-2.44800E-001	6.34615E-005	10	...........	0
	1790	35.82	-2.49672E-001	-4.73655E-006	0.00000E+000	-2.49800E-001	5.22022E-005	10	...........	0
	1795	35.92	-2.54665E-001	-4.44963E-006	0.00000E+000	-2.54800E-001	6.08760E-005	10	...........	0
	1800	36.02	-2.59684E-001	-4.53971E-006	0.00000E+000	-2.59800E-001	5.91246E-005	10	...........	0
	1805	36.12	-2.64624E-001	-4.91837E-006	0.00000E+000	-2.64800E-001	6.53797E-005	10	...........	0
	1810	36.22	-2.69678E-001	-4.70319E-006	0.00000E+000	-2.69800E-001	5.94582E-005	10	...........	0
	1815	36.32	-2.74625E-001	-4.61978E-006	0.00000E+000	-2.74800E-001	6.39619E-005	10	...........	0
	1820	36.42	-2.79592E-001	-4.76824E-006	0.00000E+000	-2.79800E-001	5.69561E-005	10	...........	0
	1825	36.52	-2.84490E-001	-5.05683E-006	0.00000E+000	-2.84800E-001	6.38785E-005	10	...........	0
	1830	36.62	-2.89594E-001	-4.99511E-006	0.00000E+000	-2.89800E-001	5.65391E-005	10	...........	0
	1835	36.72	-2.94669E-001	-4.91170E-006	0.00000E+000	-2.94800E-001	6.54631E-005	10	...........	0
	1840	36.82	-2.99667E-001	-4.80995E-006	0.00000E+000	-2.99800E-001	6.47959E-005	10	...........	0
	1845	36.92	-3.04614E-001	-4.58809E-006	0.00000E+000	-3.04800E-001	6.65473E-005	10	...........	0
	1850	37.02	-3.09573E-001	-4.62312E-006	0.00000E+000	-3.09800E-001	5.71229E-005	10	...........	0
	1855	37.12	-3.14559E-001	-4.36789E-006	0.00000E+000	-3.14800E-001	5.52047E-005	10	...........	0
	1860	37.22	-3.19587E-001	-4.11100E-006	0.00000E+000	-3.19800E-001	6.03756E-005	10	...........	0
	1865	37.32	-3.24565E-001	-4.45464E-006	0.00000E+000	-3.24800E-001	5.96250E-005	10	...........	0
	1870	37.42	-3.29599E-001	-4.64147E-006	0.00000E+000	-3.29800E-001	5.32865E-005	10	...........	0
	1875	37.52	-3.34508E-001	-3.01672E-006	0.00000E+000	-3.34800E-001	6.14598E-005	10	...........	0
	1880	37.62	-3.39654E-001	-4.11267E-006	0.00000E+000	-3.39800E-001	7.22186E-005	10	...........	0
	1885	37.72	-3.44636E-001	-4.12935E-006	0.00000E+000	-3.44800E-001	6.33781E-005	10	...........	0
	1890	37.82	-3.49577E-001	-4.66148E-006	0.00000E+000	-3.49800E-001	6.18768E-005	10	...........	0
	1895	37.92	-3.54484E-001	-2.94332E-006	0.00000E+000	-3.54800E-001	6.07926E-005	10	...........	0
	1900	38.02	-3.59531E-001	-4.09099E-006	0.00000E+000	-3.59800E-001	6.03756E-005	10	...........	0
	1905	38.12	-3.64432E-001	-4.42795E-006	0.00000E+000	-3.64800E-001	5.93748E-005	10	...........	0
	1910	38.22	-3.69441E-001	-4.15938E-006	0.00000E+000	-3.69800E-001	5.03674E-005	10	...........	0
	1915	38.32	-3.74520E-001	-2.94332E-006	0.00000E+000	-3.74800E-001	5.85408E-005	10	...........	0
	1920	38.42	-3.79569E-001	-4.77325E-006	0.00000E+000	-3.79800E-001	6.15432E-005	10	...........	0
	1925	38.52	-3.84578E-001	-4.38124E-006	0.00000E+000	-3.84800E-001	5.97084E-005	10	...........	0
	1930	38.62	-3.89506E-001	-4.42461E-006	0.00000E+000	-3.89800E-001	5.47877E-005	10	...........	0
	1935	38.72	-3.94479E-001	-4.64814E-006	0.00000E+000	-3.94800E-001	5.91246E-005	10	...........	0
	1940	38.82	-3.99541E-001	-4.86499E-006	0.00000E+000	-3.99800E-001	5.98752E-005	10	...........	0
	1945	38.92	-4.04478E-001	-5.12355E-006	0.00000E+000	-4.04800E-001	5.73731E-005	10	...........	0
	1950	39.02	-4.09391E-001	-4.20442E-006	0.00000E+000	-4.09800E-001	6.49627E-005	10	...........	0
	1955	39.12	-4.14462E-001	-4.62312E-006	0.00000E+000	-4.14800E-001	6.28776E-005	10	...........	0
	1960	39.22	-4.19552E-001	-4.80661E-006	0.00000E+000	-4.19800E-001	6.33781E-005	10	...........	0
	1965	39.32	-4.24526E-001	-4.58475E-006	0.00000E+000	-4.24800E-001	5.92914E-005	10	...........	0
	1970	39.42	-4.29433E-001	-3.66228E-006	0.00000E+000	-4.29800E-001	6.05424E-005	10	...........	0
	1975	39.52	-4.34454E-001	-4.73321E-006	0.00000E+000	-4.34800E-001	6.08760E-005	10	...........	0
	1980	39.62	-4.39434E-001	-4.80828E-006	0.00000E+000	-4.39800E-001	5.98752E-005	10	...........	0
	1985	39.72	-4.44413E-001	-5.01512E-006	0.00000E+000	-4.44800E-001	5.66225E-005	10	...........	0
	1990	39.82	-4.49435E-001	-4.05429E-006	0.00000E+000	-4.49800E-001	4.97002E-005	10	...........	0
	1995	39.92	-4.54476E-001	-5.02180E-006	0.00000E+000	-4.54800E-001	5.36201E-005	10	...........	0
	2000	40.02	-4.59489E-001	-4.91337E-006	0.00000E+000	-4.59800E-001	6.37117E-005	10	...........	0
	2005	40.12	-4.64522E-001	-4.41293E-006	0.00000E+000	-4.64800E-001	5.50379E-005	10	...........	0
	2010	40.22	-4.69401E-001	-3.77404E-006	0.00000E+000	-4.69800E-001	5.05342E-005	10	...........	0
	2015	40.32	-4.74490E-001	-4.88668E-006	0.00000E+000	-4.74800E-001	5.76234E-005	10	...........	0
	2020	40.42	-4.79437E-001	-4.63146E-006	0.00000E+000	-4.79800E-001	6.15432E-005	10	...........	0
	2025	40.52	-4.84387E-001	-4.50301E-006	0.00000E+000	-4.84800E-001	6.32113E-005	10	...........	0
	2030	40.62	-4.89297E-001	-4.62645E-006	0.00000E+000	-4.89800E-001	5.92080E-005	10	...........	0
	2035	40.72	-4.94408E-001	-4.88001E-006	0.00000E+000	-4.94800E-001	5.42039E-005	10	...........	0
	2040	40.82	-4.99470E-001	-5.04849E-006	0.00000E+000	-4.99800E-001	6.20436E-005	10	...........	0
	2045	40.92	-5.04445E-001	-4.55139E-006	0.00000E+000	-5.04800E-001	5.55383E-005	10	...........	0
	2050	41.02	-5.09411E-001	-4.65481E-006	0.00000E+000	-5.09800E-001	6.18768E-005	10	...........	0
	2055	41.12	-5.14381E-001	-4.65648E-006	0.00000E+000	-5.14800E-001	5.52047E-005	10	...........	0
	2060	41.22	-5.19381E-001	-4.62979E-006	0.00000E+000	-5.19800E-001	6.17934E-005	10	...........	0
	2065	41.32	-5.24328E-001	-3.39538E-006	0.00000E+000	-5.24800E-001	6.33781E-005	10	...........	0
	2070	41.42	-5.29372E-001	-5.30871E-006	0.00000E+000	-5.29800E-001	5.98752E-005	10	...........	0
	2075	41.52	-5.34417E-001	-5.11688E-006	0.00000E+000	-5.34800E-001	5.74565E-005	10	...........	0
	2080	41.62	-5.39357E-001	-5.09353E-006	0.00000E+000	-5.39800E-001	5.40371E-005	10	...........	0
	2085	41.72	-5.44391E-001	-4.28115E-006	0.00000E+000	-5.44800E-001	5.62889E-005	10	...........	0
	2090	41.82	-5.49443E-001	-5.14357E-006	0.00000E+000	-5.49800E-001	6.34615E-005	10	...........	0
	2095	41.92	-5.54393E-001	-5.26534E-006	0.00000E+000	-5.54800E-001	5.48711E-005	10	...........	0
	2100	42.02	-5.59340E-001	-5.30538E-006	0.00000E+000	-5.59800E-001	5.90412E-005	10	...........	0
	2105	42.12	-5.64352E-001	-4.96675E-006	0.00000E+000	-5.64800E-001	5.70395E-005	10	...........	0
	2110	42.22	-5.69245E-001	-5.27202E-006	0.00000E+000	-5.69800E-001	6.02922E-005	10	...........	0
	2115	42.32	-5.74331E-001	-5.41047E-006	0.00000E+000	-5.74800E-001	5.04508E-005	10	...........	0
	2120	42.42	-5.79398E-001	-5.20362E-006	0.00000E+000	-5.79800E-001	6.41287E-005	10	...........	0
	2125	42.52	-5.84397E-001	-5.37377E-006	0.00000E+000	-5.84800E-001	6.67975E-005	10	...........	0
	2130	42.62	-5.89383E-001	-5.01512E-006	0.00000E+000	-5.89800E-001	6.29610E-005	10	...........	0
	2135	42.72	-5.94338E-001	-4.98343E-006	0.00000E+000	-5.94800E-001	6.20436E-005	10	...........	0
	2140	42.82	-5.99273E-001	-4.97843E-006	0.00000E+000	-5.99800E-001	5.74565E-005	10	...........	0
	2145	42.92	-5.94462E-001	-3.28195E-006	0.00000E+000	-5.95000E-001	5.92914E-005	10	...........	1
	2150	43.02	-5.89544E-001	-4.79827E-006	0.00000E+000	-5.90000E-001	5.76234E-005	10	...........	1
	2155	43.12	-5.84610E-001	-4.80995E-006	0.00000E+000	-5.85000E-001	6.52963E-005	10	...........	1
	2160	43.22	-5.79620E-001	-5.09686E-006	0.00000E+000	-5.80000E-001	5.84574E-005	10	...........	1
	2165	43.32	-5.74589E-001	-4.28282E-006	0.00000E+000	-5.75000E-001	5.66225E-005	10	...........	1
	2170	43.42	-5.69610E-001	-4.97676E-006	0.00000E+000	-5.70000E-001	5.12014E-005	10	...........	1
	2175	43.52	-5.64506E-001	-5.05182E-006	0.00000E+000	-5.65000E-001	6.60469E-005	10	...........	1
	2180	43.62	-5.59571E-001	-4.84498E-006	0.00000E+000	-5.60000E-001	6.53797E-005	10	...........	1
	2185	43.72	-5.54584E-001	-4.42461E-006	0.00000E+000	-5.55000E-001	5.67059E-005	10	...........	1
	2190	43.82	-5.49653E-001	-5.46218E-006	0.00000E+000	-5.50000E-001	5.36201E-005	10	...........	1
	2195	43.92	-5.44614E-001	-5.08852E-006	0.00000E+000	-5.45000E-001	5.57885E-005	10	...........	1
	2200	44.02	-5.39621E-001	-4.87167E-006	0.00000E+000	-5.40000E-001	5.64557E-005	10	...........	1
	2205	44.12	-5.34661E-001	-5.08685E-006	0.00000E+000	-5.35000E-001	6.64639E-005	10	...........	1
	2210	44.22	-5.29646E-001	-5.41547E-006	0.00000E+000	-5.30000E-001	5.62889E-005	10	...........	1
	2215	44.32	-5.24653E-001	-5.14190E-006	0.00000E+000	-5.25000E-001	6.02088E-005	10	...........	1
	2220	44.42	-5.19604E-001	-4.37123E-006	0.00000E+000	-5.20000E-001	5.67059E-005	10	...........	1
	2225	44.52	-5.14585E-001	-5.16025E-006	0.00000E+000	-5.15000E-001	5.89578E-005	10	...........	1
	2230	44.62	-5.09628E-001	-4.90837E-006	0.00000E+000	-5.10000E-001	5.77901E-005	10	...........	1
	2235	44.72	-5.04679E-001	-5.26701E-006	0.00000E+000	-5.05000E-001	5.77901E-005	10	...........	1
	2240	44.82	-4.99638E-001	-4.00925E-006	0.00000E+000	-5.00000E-001	4.62807E-005	10	...........	1
	2245	44.92	-4.94643E-001	-5.63567E-006	0.00000E+000	-4.95000E-001	5.88744E-005	10	...........	1
	2250	45.02	-4.89672E-001	-4.90169E-006	0.00000E+000	-4.90000E-001	5.07844E-005	10	...........	1
	2255	45.12	-4.84537E-001	-5.12188E-006	0.00000E+000	-4.85000E-001	5.62889E-005	10	...........	1
	2260	45.22	-4.79595E-001	-4.01425E-006	0.00000E+000	-4.80000E-001	5.80404E-005	10	...........	1
	2265	45.32	-4.74702E-001	-4.95841E-006	0.00000E+000	-4.75000E-001	5.83740E-005	10	...........	1
	2270	45.42	-4.69647E-001	-4.91504E-006	0.00000E+000	-4.70000E-001	5.45375E-005	10	...........	1
	2275	45.52	-4.64640E-001	-4.67816E-006	0.00000E+000	-4.65000E-001	6.28776E-005	10	...........	1
	2280	45.62	-4.59743E-001	-4.23945E-006	0.00000E+000	-4.60000E-001	6.67975E-005	10	...........	1
	2285	45.72	-4.54722E-001	-5.04181E-006	0.00000E+000	-4.55000E-001	6.25440E-005	10	...........	1
	2290	45.82	-4.49738E-001	-4.93172E-006	0.00000E+000	-4.50000E-001	5.27861E-005	10	...........	1
	2295	45.92	-4.44620E-001	-4.94006E-006	0.00000E+000	-4.45000E-001	5.75399E-005	10	...........	1
	2300	46.02	-4.39615E-001	-4.55306E-006	0.00000E+000	-4.40000E-001	5.81238E-005	10	...........	1
	2305	46.12	-4.34696E-001	-4.54805E-006	0.00000E+000	-4.35000E-001	6.52129E-005	10	...........	1
	2310	46.22	-4.29694E-001	-4.84331E-006	0.00000E+000	-4.30000E-001	5.99586E-005	10	...........	1
	2315	46.32	-4.24707E-001	-4.29116E-006	0.00000E+000	-4.25000E-001	5.55383E-005	10	...........	1
	2320	46.42	-4.19811E-001	-5.13189E-006	0.00000E+000	-4.20000E-001	6.17934E-005	10	...........	1
	2325	46.52	-4.14741E-001	-4.95507E-006	0.00000E+000	-4.15000E-001	5.90412E-005	10	...........	1
	2330	46.62	-4.09734E-001	-5.28369E-006	0.00000E+000	-4.10000E-001	5.19520E-005	10	...........	1
	2335	46.72	-4.04693E-001	-3.95587E-006	0.00000E+000	-4.05000E-001	5.47043E-005	10	...........	1
	2340	46.82	-3.99747E-001	-5.01012E-006	0.00000E+000	-4.00000E-001	6.22938E-005	10	...........	1
	2345	46.92	-3.94751E-001	-5.36543E-006	0.00000E+000	-3.95000E-001	6.35449E-005	10	...........	1
	2350	47.02	-3.89686E-001	-4.90336E-006	0.00000E+000	-3.90000E-001	5.58719E-005	10	...........	1
	2355	47.12	-3.84675E-001	-3.93585E-006	0.00000E+000	-3.85000E-001	5.23690E-005	10	...........	1
	2360	47.22	-3.79808E-001	-5.30538E-006	0.00000E+000	-3.80000E-001	5.78736E-005	10	...........	1
	2365	47.32	-3.74828E-001	-5.41214E-006	0.00000E+000	-3.75000E-001	6.12930E-005	10	...........	1
	2370	47.42	-3.69842E-001	-5.20029E-006	0.00000E+000	-3.70000E-001	5.86242E-005	10	...........	1
	2375	47.52	-3.64692E-001	-4.13102E-006	0.00000E+000	-3.65000E-001	5.48711E-005	10	...........	1
	2380	47.62	-3.59699E-001	-5.19528E-006	0.00000E+000	-3.60000E-001	5.64557E-005	10	...........	1
	2385	47.72	-3.54774E-001	-4.67316E-006	0.00000E+000	-3.55000E-001	5.45375E-005	10	...........	1
	2390	47.82	-3.49794E-001	-4.75156E-006	0.00000E+000	-3.50000E-001	6.30444E-005	10	...........	1
	2395	47.92	-3.44828E-001	-4.39792E-006	0.00000E+000	-3.45000E-001	6.03756E-005	10	...........	1
	2400	48.02	-3.39819E-001	-4.88168E-006	0.00000E+000	-3.40000E-001	5.70395E-005	10	...........	1
	2405	48.12	-3.34833E-001	-4.99678E-006	0.00000E+000	-3.35000E-001	5.76234E-005	10	...........	1
	2410	48.22	-3.29841E-001	-4.76324E-006	0.00000E+000	-3.30000E-001	6.28776E-005	10	...........	1
	2415	48.32	-3.24826E-001	-4.67816E-006	0.00000E+000	-3.25000E-001	5.72897E-005	10	...........	1
	2420	48.42	-3.19840E-001	-4.58809E-006	0.00000E+000	-3.20000E-001	6.30444E-005	10	...........	1
	2425	48.52	-3.14836E-001	-4.70819E-006	0.00000E+000	-3.15000E-001	5.95416E-005	10	...........	1
	2430	48.62	-3.09752E-001	-3.74735E-006	0.00000E+000	-3.10000E-001	5.87910E-005	10	...........	1
	2435	48.72	-3.04817E-001	-4.56640E-006	0.00000E+000	-3.05000E-001	5.79570E-005	10	...........	1