File: 20191129/matning1/CVTESTKRISTALL4BOX5_3.DTA
EXPLAIN
TAG	CV
TITLE	LABEL	CV	Test &Identifier
DATE	LABEL	11/29/2019	Date
TIME	LABEL	11:09:48	Time
NOTES	NOTES	1	&Notes...

PSTAT	PSTAT	REF600-16093	Potentiostat
VINIT	POTEN	0.00000E+000	T	Initial &E (V)
VLIMIT1	POTEN	8.00000E-001	F	Scan Limit &1 (V)
VLIMIT2	POTEN	-5.00000E-001	F	Scan Limit &2 (V)
VFINAL	POTEN	0.00000E+000	T	Final &E (V)
SCANRATE	QUANT	4.99999E+001	&Scan Rate (mV/s)
STEPSIZE	QUANT	1.00000E+000	St&ep Size (mV)
CYCLES	IQUANT	5	C&ycles (#)
IMODE	SELECTOR	1	I/E Range &Mode
IRANGE	QUANT	1.50000E+001	&Max Current (mA)
AREA	QUANT	1.00000E+000	Electrode &Area (cm^2)
ELECTRODETYPE	SELECTOR	0	Electrode Type
STRIPPING	TOGGLE	F	Used for Stripping
POLARITY	TOGGLE	F	Signal Polarity
CONDIT	TWOPARAM	F	1.50000E+001	0.00000E+000	Conditionin&g	Time(s)	E(V)
DELAY	TWOPARAM	T	5.00000E+000	0.00000E+000	Init. De&lay	Time(s)	Stab.(mV/s)
EQDELAY	QUANT	3.00000E+000	Equil. &Time (s)
IRCOMP	SELECTOR	0	IRCom&p
PFCOR	QUANT	0.00000E+000	PF Corr. (ohm)
SAMPLINGMODE	SELECTOR	2	Sampling &Mode
OCVCURVE	TABLE	20
	Pt	T	Vf	Vm	Ach	Over
	#	s	V vs. Ref.	V	V	bits
	0	0.25	1.07525E-001	1.07525E-001	7.78503E-005	...........
	1	0.5	1.07628E-001	1.12935E-001	8.24752E-005	...........
	2	0.75	1.08096E-001	1.09300E-001	7.92253E-005	...........
	3	1	1.08933E-001	1.09597E-001	8.00586E-005	...........
	4	1.25	1.09687E-001	1.10751E-001	7.88086E-005	...........
	5	1.5	1.10082E-001	1.11591E-001	7.37253E-005	...........
	6	1.75	1.10215E-001	1.04581E-001	7.93502E-005	...........
	7	2	1.09882E-001	1.04411E-001	7.91419E-005	...........
	8	2.25	1.08875E-001	1.12463E-001	7.49753E-005	...........
	9	2.5	1.07918E-001	1.09062E-001	8.11002E-005	...........
	10	2.75	1.07918E-001	1.10583E-001	8.20169E-005	...........
	11	3	1.08718E-001	1.10997E-001	8.15169E-005	...........
	12	3.25	1.09574E-001	1.08284E-001	7.91836E-005	...........
	13	3.5	1.09897E-001	1.03812E-001	7.88503E-005	...........
	14	3.75	1.09355E-001	1.08073E-001	7.98086E-005	...........
	15	4	1.08322E-001	1.12079E-001	7.79336E-005	...........
	16	4.25	1.07806E-001	1.07984E-001	7.99336E-005	...........
	17	4.5	1.08191E-001	1.10248E-001	7.53503E-005	...........
	18	4.75	1.08927E-001	1.11233E-001	7.94336E-005	...........
	19	5	1.09598E-001	1.12079E-001	7.63086E-005	...........
EOC	QUANT	0.1095983	Open Circuit (V)
PSTATMODEL	IQUANT	4	Pstat Model
PSTATSECTION	LABEL	REF600-16093	Pstat Section
PSTATSERIALNO	LABEL	16093	Pstat Serial Number
CTRLMODE	IQUANT	1	Control Mode
IESTAB	IQUANT	2	I/E Stability
CASPEED	IQUANT	2	Control Amp Speed
CONVENTION	IQUANT	1	Current Convention
ICHRANGE	IQUANT	2	Ich Range
ICHRANGEMODE	TOGGLE	F	Ich Auto Range
ICHOFFSETENABLE	TOGGLE	F	Ich Offset Enable
ICHOFFSET	QUANT	0	Ich Offset (V)
ICHFILTER	IQUANT	2	Ich Filter
VCHRANGE	IQUANT	2	Vch Range
VCHRANGEMODE	TOGGLE	F	Vch Auto Range
VCHOFFSETENABLE	TOGGLE	F	Vch Offset Enable
VCHOFFSET	QUANT	0	Vch Offset (V)
VCHFILTER	IQUANT	2	Vch Filter
ACHRANGE	IQUANT	2	Ach Range
ACHOFFSETENABLE	TOGGLE	F	Ach Offset Enable
ACHOFFSET	QUANT	0	Ach Offset (V)
ACHFILTER	IQUANT	1	Ach Filter
IERANGELOWERLIMIT	IQUANT	1	I/E Range Lower Limit
IERANGEMODE	TOGGLE	F	I/E AutoRange
IERANGE	IQUANT	10	I/E Range
POSFEEDENABLE	TOGGLE	F	Positive Feedback IR Comp
POSFEEDRESISTANCE	QUANT	0	Positive Feedback Resistance (ohm)
ACHSELECT	IQUANT	0	Ach Select
CABLEID	IQUANT	14	Cable ID
DCCALDATE	LABEL	11/5/2019	DC Calibration Date
ACCALDATE	LABEL		AC Calibration Date
THERMOSELECT	IQUANT	1	Thermo Select
FRAMEWORKVERSION	QUANT	6.12	Framework Version
INSTRUMENTVERSION	LABEL	3.11	Instrument Version
CURVE1	TABLE
	Pt	T	Vf	Im	Vu	Sig	Ach	IERange	Over
	#	s	V vs. Ref.	A	V	V	V	#	bits
	0	0.02	1.09270E-001	-1.78731E-006	0.00000E+000	1.09600E-001	7.47207E-005	10	...........
	4	0.1	1.13222E-001	-2.16765E-006	0.00000E+000	1.13600E-001	7.18016E-005	10	...........
	8	0.18	1.17270E-001	-2.31444E-006	0.00000E+000	1.17600E-001	7.38866E-005	10	...........
	12	0.26	1.21146E-001	-2.17432E-006	0.00000E+000	1.21600E-001	6.82153E-005	10	...........
	16	0.34	1.25267E-001	-2.34613E-006	0.00000E+000	1.25600E-001	6.82987E-005	10	...........
	20	0.42	1.29140E-001	-2.07924E-006	0.00000E+000	1.29600E-001	7.40535E-005	10	...........
	24	0.5	1.33243E-001	-1.62050E-006	0.00000E+000	1.33600E-001	6.89660E-005	10	...........
	28	0.58	1.37197E-001	-1.39864E-006	0.00000E+000	1.37600E-001	6.94664E-005	10	...........
	32	0.66	1.41232E-001	-2.04587E-006	0.00000E+000	1.41600E-001	7.52211E-005	10	...........
	36	0.74	1.45069E-001	-1.84904E-006	0.00000E+000	1.45600E-001	6.82987E-005	10	...........
	40	0.82	1.49241E-001	-1.79566E-006	0.00000E+000	1.49600E-001	7.10510E-005	10	...........
	44	0.9	1.53156E-001	-2.14763E-006	0.00000E+000	1.53600E-001	6.87992E-005	10	...........
	48	0.98	1.57237E-001	-1.92744E-006	0.00000E+000	1.57600E-001	6.95498E-005	10	...........
	52	1.06	1.61190E-001	-1.59381E-006	0.00000E+000	1.61600E-001	6.90494E-005	10	...........
	56	1.14	1.65216E-001	-1.63885E-006	0.00000E+000	1.65600E-001	7.02170E-005	10	...........
	60	1.22	1.69036E-001	-1.63718E-006	0.00000E+000	1.69600E-001	6.68809E-005	10	...........
	64	1.3	1.73224E-001	-1.96247E-006	0.00000E+000	1.73600E-001	6.59635E-005	10	...........
	68	1.38	1.77149E-001	-1.58881E-006	0.00000E+000	1.77600E-001	7.00502E-005	10	...........
	72	1.46	1.81217E-001	-2.08758E-006	0.00000E+000	1.81600E-001	6.99668E-005	10	...........
	76	1.54	1.85142E-001	-1.91910E-006	0.00000E+000	1.85600E-001	6.88826E-005	10	...........
	80	1.62	1.89206E-001	-1.94245E-006	0.00000E+000	1.89600E-001	6.74647E-005	10	...........
	84	1.7	1.93032E-001	-2.26106E-006	0.00000E+000	1.93600E-001	6.82987E-005	10	...........
	88	1.78	1.97202E-001	-1.66888E-006	0.00000E+000	1.97600E-001	6.85490E-005	10	...........
	92	1.86	2.01097E-001	-1.55878E-006	0.00000E+000	2.01600E-001	7.47207E-005	10	...........
	96	1.94	2.05185E-001	-1.75896E-006	0.00000E+000	2.05600E-001	7.59717E-005	10	...........
	100	2.02	2.09077E-001	-2.08424E-006	0.00000E+000	2.09600E-001	6.57133E-005	10	...........
	104	2.1	2.13179E-001	-2.16431E-006	0.00000E+000	2.13600E-001	6.71311E-005	10	...........
	108	2.18	2.17105E-001	-1.97414E-006	0.00000E+000	2.17600E-001	6.80485E-005	10	...........
	112	2.26	2.21187E-001	-1.95746E-006	0.00000E+000	2.21600E-001	6.96332E-005	10	...........
	116	2.34	2.25022E-001	-1.76730E-006	0.00000E+000	2.25600E-001	7.16348E-005	10	...........
	120	2.42	2.29189E-001	-1.74394E-006	0.00000E+000	2.29600E-001	6.91328E-005	10	...........
	124	2.5	2.33024E-001	-1.96247E-006	0.00000E+000	2.33600E-001	7.05506E-005	10	...........
	128	2.58	2.37177E-001	-2.19100E-006	0.00000E+000	2.37600E-001	6.87158E-005	10	...........
	132	2.66	2.41092E-001	-1.73560E-006	0.00000E+000	2.41600E-001	6.63805E-005	10	...........
	136	2.74	2.45172E-001	-1.82902E-006	0.00000E+000	2.45600E-001	6.95498E-005	10	...........
	140	2.82	2.48994E-001	-1.61216E-006	0.00000E+000	2.49600E-001	6.88826E-005	10	...........
	144	2.9	2.53176E-001	-1.93911E-006	0.00000E+000	2.53600E-001	7.13846E-005	10	...........
	148	2.98	2.57004E-001	-1.94412E-006	0.00000E+000	2.57600E-001	7.38032E-005	10	...........
	152	3.06	2.61170E-001	-1.56545E-006	0.00000E+000	2.61600E-001	6.92162E-005	10	...........
	156	3.14	2.65075E-001	-1.58047E-006	0.00000E+000	2.65600E-001	6.99668E-005	10	...........
	160	3.22	2.69153E-001	-1.39197E-006	0.00000E+000	2.69600E-001	6.72979E-005	10	...........
	164	3.3	2.72982E-001	-1.58380E-006	0.00000E+000	2.73600E-001	7.21352E-005	10	...........
	168	3.38	2.77173E-001	-1.56212E-006	0.00000E+000	2.77600E-001	7.06340E-005	10	...........
	172	3.46	2.81022E-001	-1.68056E-006	0.00000E+000	2.81600E-001	7.03838E-005	10	...........
	176	3.54	2.85171E-001	-1.62718E-006	0.00000E+000	2.85600E-001	6.96332E-005	10	...........
	180	3.62	2.89048E-001	-1.79065E-006	0.00000E+000	2.89600E-001	7.08008E-005	10	...........
	184	3.7	2.93120E-001	-1.67221E-006	0.00000E+000	2.93600E-001	7.30526E-005	10	...........
	188	3.78	2.96977E-001	-1.66054E-006	0.00000E+000	2.97600E-001	7.28024E-005	10	...........
	192	3.86	3.01167E-001	-1.55044E-006	0.00000E+000	3.01600E-001	7.31360E-005	10	...........
	196	3.94	3.04999E-001	-1.79399E-006	0.00000E+000	3.05600E-001	7.90576E-005	10	...........
	200	4.02	3.09167E-001	-1.67722E-006	0.00000E+000	3.09600E-001	7.22186E-005	10	...........
	204	4.1	3.13004E-001	-1.76563E-006	0.00000E+000	3.13600E-001	7.13846E-005	10	...........
	208	4.18	3.17116E-001	-2.09758E-006	0.00000E+000	3.17600E-001	7.20518E-005	10	...........
	212	4.26	3.20958E-001	-1.97414E-006	0.00000E+000	3.21600E-001	7.42203E-005	10	...........
	216	4.34	3.25159E-001	-2.05755E-006	0.00000E+000	3.25600E-001	6.92996E-005	10	...........
	220	4.42	3.28985E-001	-1.62884E-006	0.00000E+000	3.29600E-001	6.93830E-005	10	...........
	224	4.5	3.33168E-001	-2.40452E-006	0.00000E+000	3.33600E-001	6.96332E-005	10	...........
	228	4.58	3.36984E-001	-1.85571E-006	0.00000E+000	3.37600E-001	7.54713E-005	10	...........
	232	4.66	3.41129E-001	-1.99083E-006	0.00000E+000	3.41600E-001	7.49709E-005	10	...........
	236	4.74	3.45000E-001	-1.97915E-006	0.00000E+000	3.45600E-001	7.03004E-005	10	...........
	240	4.82	3.49153E-001	-1.66221E-006	0.00000E+000	3.49600E-001	6.90494E-005	10	...........
	244	4.9	3.52965E-001	-1.91076E-006	0.00000E+000	3.53600E-001	6.88826E-005	10	...........
	248	4.98	3.57154E-001	-2.17932E-006	0.00000E+000	3.57600E-001	6.77149E-005	10	...........
	252	5.06	3.60979E-001	-1.86071E-006	0.00000E+000	3.61600E-001	7.04672E-005	10	...........
	256	5.14	3.65133E-001	-1.83569E-006	0.00000E+000	3.65600E-001	6.72979E-005	10	...........
	260	5.22	3.69004E-001	-1.84904E-006	0.00000E+000	3.69600E-001	7.03004E-005	10	...........
	264	5.3	3.73159E-001	-1.85904E-006	0.00000E+000	3.73600E-001	6.73813E-005	10	...........
	268	5.38	3.76972E-001	-1.99583E-006	0.00000E+000	3.77600E-001	7.23854E-005	10	...........
	272	5.46	3.81158E-001	-1.90575E-006	0.00000E+000	3.81600E-001	6.62137E-005	10	...........
	276	5.54	3.84972E-001	-1.90575E-006	0.00000E+000	3.85600E-001	7.09676E-005	10	...........
	280	5.62	3.89117E-001	-2.26773E-006	0.00000E+000	3.89600E-001	6.56299E-005	10	...........
	284	5.7	3.92978E-001	-2.32111E-006	0.00000E+000	3.93600E-001	7.09676E-005	10	...........
	288	5.78	3.97060E-001	-2.51628E-006	0.00000E+000	3.97600E-001	6.65473E-005	10	...........
	292	5.86	4.00972E-001	-2.40452E-006	0.00000E+000	4.01600E-001	7.11344E-005	10	...........
	296	5.94	4.05163E-001	-2.25606E-006	0.00000E+000	4.05600E-001	7.12178E-005	10	...........
	300	6.02	4.08974E-001	-1.94245E-006	0.00000E+000	4.09600E-001	6.87992E-005	10	...........
	304	6.1	4.13109E-001	-2.09758E-006	0.00000E+000	4.13600E-001	6.78817E-005	10	...........
	308	6.18	4.16946E-001	-1.98582E-006	0.00000E+000	4.17600E-001	6.82987E-005	10	...........
	312	6.26	4.20990E-001	-2.20434E-006	0.00000E+000	4.21600E-001	6.76315E-005	10	...........
	316	6.34	4.24964E-001	-2.07924E-006	0.00000E+000	4.25600E-001	6.94664E-005	10	...........
	320	6.42	4.29156E-001	-2.33446E-006	0.00000E+000	4.29600E-001	6.48793E-005	10	...........
	324	6.5	4.32964E-001	-2.49460E-006	0.00000E+000	4.33600E-001	6.74647E-005	10	...........
	328	6.58	4.37146E-001	-2.27274E-006	0.00000E+000	4.37600E-001	6.84655E-005	10	...........
	332	6.66	4.40962E-001	-2.08591E-006	0.00000E+000	4.41600E-001	7.43037E-005	10	...........
	336	6.74	4.45008E-001	-2.03586E-006	0.00000E+000	4.45600E-001	7.66389E-005	10	...........
	340	6.82	4.48908E-001	-2.15263E-006	0.00000E+000	4.49600E-001	7.33862E-005	10	...........
	344	6.9	4.53009E-001	-1.91910E-006	0.00000E+000	4.53600E-001	7.42203E-005	10	...........
	348	6.98	4.56956E-001	-1.87239E-006	0.00000E+000	4.57600E-001	7.12178E-005	10	...........
	352	7.06	4.61122E-001	-2.10259E-006	0.00000E+000	4.61600E-001	7.14680E-005	10	...........
	356	7.14	4.64959E-001	-2.50294E-006	0.00000E+000	4.65600E-001	7.38032E-005	10	...........
	360	7.22	4.69029E-001	-2.22603E-006	0.00000E+000	4.69600E-001	6.74647E-005	10	...........
	364	7.3	4.72928E-001	-2.28108E-006	0.00000E+000	4.73600E-001	7.48875E-005	10	...........
	368	7.38	4.77113E-001	-2.31611E-006	0.00000E+000	4.77600E-001	7.24688E-005	10	...........
	372	7.46	4.80935E-001	-1.96414E-006	0.00000E+000	4.81600E-001	6.85490E-005	10	...........
	376	7.54	4.85109E-001	-2.23604E-006	0.00000E+000	4.85600E-001	6.95498E-005	10	...........
	380	7.62	4.88945E-001	-2.66808E-006	0.00000E+000	4.89600E-001	7.64721E-005	10	...........
	384	7.7	4.93011E-001	-2.32779E-006	0.00000E+000	4.93600E-001	7.03838E-005	10	...........
	388	7.78	4.96931E-001	-2.60469E-006	0.00000E+000	4.97600E-001	7.36364E-005	10	...........
	392	7.86	5.01104E-001	-2.64806E-006	0.00000E+000	5.01600E-001	6.92996E-005	10	...........
	396	7.94	5.04935E-001	-2.44122E-006	0.00000E+000	5.05600E-001	7.79733E-005	10	...........
	400	8.02	5.09079E-001	-2.41620E-006	0.00000E+000	5.09600E-001	6.92162E-005	10	...........
	404	8.1	5.12919E-001	-2.65140E-006	0.00000E+000	5.13600E-001	7.33028E-005	10	...........
	408	8.18	5.16942E-001	-2.61971E-006	0.00000E+000	5.17600E-001	7.33028E-005	10	...........
	412	8.26	5.20910E-001	-2.51461E-006	0.00000E+000	5.21600E-001	7.19684E-005	10	...........
	416	8.34	5.24881E-001	-2.56966E-006	0.00000E+000	5.25600E-001	7.73061E-005	10	...........
	420	8.42	5.28918E-001	-2.60970E-006	0.00000E+000	5.29600E-001	7.33028E-005	10	...........
	424	8.5	5.33127E-001	-2.73147E-006	0.00000E+000	5.33600E-001	7.34697E-005	10	...........
	428	8.58	5.36922E-001	-2.65307E-006	0.00000E+000	5.37600E-001	6.87992E-005	10	...........
	432	8.66	5.40961E-001	-2.76483E-006	0.00000E+000	5.41600E-001	7.63887E-005	10	...........
	436	8.74	5.44880E-001	-2.45123E-006	0.00000E+000	5.45600E-001	7.58883E-005	10	...........
	440	8.82	5.48860E-001	-2.42454E-006	0.00000E+000	5.49600E-001	7.45539E-005	10	...........
	444	8.9	5.52899E-001	-2.55799E-006	0.00000E+000	5.53600E-001	7.19684E-005	10	...........
	448	8.98	5.56999E-001	-2.55298E-006	0.00000E+000	5.57600E-001	6.99668E-005	10	...........
	452	9.06	5.60897E-001	-2.44289E-006	0.00000E+000	5.61600E-001	7.53045E-005	10	...........
	456	9.14	5.64988E-001	-2.64473E-006	0.00000E+000	5.65600E-001	7.03004E-005	10	...........
	460	9.22	5.68887E-001	-2.44122E-006	0.00000E+000	5.69600E-001	7.10510E-005	10	...........
	464	9.3	5.72878E-001	-2.18099E-006	0.00000E+000	5.73600E-001	7.43037E-005	10	...........
	468	9.38	5.76826E-001	-2.35614E-006	0.00000E+000	5.77600E-001	7.48041E-005	10	...........
	472	9.46	5.80879E-001	-2.51461E-006	0.00000E+000	5.81600E-001	7.43871E-005	10	...........
	476	9.54	5.84892E-001	-2.55799E-006	0.00000E+000	5.85600E-001	7.50543E-005	10	...........
	480	9.62	5.88966E-001	-3.00838E-006	0.00000E+000	5.89600E-001	7.46373E-005	10	...........
	484	9.7	5.92862E-001	-2.61971E-006	0.00000E+000	5.93600E-001	7.32194E-005	10	...........
	488	9.78	5.96852E-001	-2.80654E-006	0.00000E+000	5.97600E-001	6.94664E-005	10	...........
	492	9.86	6.00828E-001	-2.59135E-006	0.00000E+000	6.01600E-001	6.94664E-005	10	...........
	496	9.94	6.04882E-001	-2.69143E-006	0.00000E+000	6.05600E-001	6.60469E-005	10	...........
	500	10.02	6.08835E-001	-2.66641E-006	0.00000E+000	6.09600E-001	7.34697E-005	10	...........
	504	10.1	6.12847E-001	-2.49460E-006	0.00000E+000	6.13600E-001	7.25522E-005	10	...........
	508	10.18	6.16821E-001	-2.38951E-006	0.00000E+000	6.17600E-001	6.93830E-005	10	...........
	512	10.26	6.20797E-001	-2.42120E-006	0.00000E+000	6.21600E-001	6.92996E-005	10	...........
	516	10.34	6.24811E-001	-2.34113E-006	0.00000E+000	6.25600E-001	7.24688E-005	10	...........
	520	10.42	6.29086E-001	-2.55131E-006	0.00000E+000	6.29600E-001	6.77149E-005	10	...........
	524	10.5	6.32818E-001	-1.90075E-006	0.00000E+000	6.33600E-001	6.86324E-005	10	...........
	528	10.58	6.36877E-001	-2.08758E-006	0.00000E+000	6.37600E-001	6.82153E-005	10	...........
	532	10.66	6.40797E-001	-2.27941E-006	0.00000E+000	6.41600E-001	6.71311E-005	10	...........
	536	10.74	6.44760E-001	-2.38617E-006	0.00000E+000	6.45600E-001	6.64639E-005	10	...........
	540	10.82	6.48790E-001	-1.98082E-006	0.00000E+000	6.49600E-001	6.85490E-005	10	...........
	544	10.9	6.52745E-001	-1.82235E-006	0.00000E+000	6.53600E-001	6.22938E-005	10	...........
	548	10.98	6.56787E-001	-2.11260E-006	0.00000E+000	6.57600E-001	6.47125E-005	10	...........
	552	11.06	6.60902E-001	-2.24438E-006	0.00000E+000	6.61600E-001	6.61303E-005	10	...........
	556	11.14	6.64796E-001	-2.21602E-006	0.00000E+000	6.65600E-001	6.28776E-005	10	...........
	560	11.22	6.68760E-001	-2.46123E-006	0.00000E+000	6.69600E-001	6.59635E-005	10	...........
	564	11.3	6.72766E-001	-2.06589E-006	0.00000E+000	6.73600E-001	6.61303E-005	10	...........
	568	11.38	6.76726E-001	-2.17432E-006	0.00000E+000	6.77600E-001	6.64639E-005	10	...........
	572	11.46	6.80789E-001	-2.32111E-006	0.00000E+000	6.81600E-001	6.51295E-005	10	...........
	576	11.54	6.84770E-001	-2.36782E-006	0.00000E+000	6.85600E-001	6.78817E-005	10	...........
	580	11.62	6.88789E-001	-2.17765E-006	0.00000E+000	6.89600E-001	6.92162E-005	10	...........
	584	11.7	6.92761E-001	-1.95913E-006	0.00000E+000	6.93600E-001	6.75481E-005	10	...........
	588	11.78	6.96765E-001	-2.26440E-006	0.00000E+000	6.97600E-001	6.87158E-005	10	...........
	592	11.86	7.00727E-001	-2.55131E-006	0.00000E+000	7.01600E-001	6.91328E-005	10	...........
	596	11.94	7.04673E-001	-2.70812E-006	0.00000E+000	7.05600E-001	6.52963E-005	10	...........
	600	12.02	7.08750E-001	-2.44956E-006	0.00000E+000	7.09600E-001	6.61303E-005	10	...........
	604	12.1	7.12773E-001	-2.67642E-006	0.00000E+000	7.13600E-001	6.55465E-005	10	...........
	608	12.18	7.16731E-001	-2.28608E-006	0.00000E+000	7.17600E-001	5.92080E-005	10	...........
	612	12.26	7.20753E-001	-2.52129E-006	0.00000E+000	7.21600E-001	6.31278E-005	10	...........
	616	12.34	7.24707E-001	-2.55131E-006	0.00000E+000	7.25600E-001	7.07174E-005	10	...........
	620	12.42	7.28696E-001	-2.54964E-006	0.00000E+000	7.29600E-001	6.62971E-005	10	...........
	624	12.5	7.32688E-001	-3.16685E-006	0.00000E+000	7.33600E-001	6.12096E-005	10	...........
	628	12.58	7.36748E-001	-2.95166E-006	0.00000E+000	7.37600E-001	6.50461E-005	10	...........
	632	12.66	7.40714E-001	-2.88160E-006	0.00000E+000	7.41600E-001	6.47125E-005	10	...........
	636	12.74	7.44735E-001	-2.79819E-006	0.00000E+000	7.45600E-001	6.62137E-005	10	...........
	640	12.82	7.48682E-001	-2.42620E-006	0.00000E+000	7.49600E-001	6.62137E-005	10	...........
	644	12.9	7.52696E-001	-2.54964E-006	0.00000E+000	7.53600E-001	6.65473E-005	10	...........
	648	12.98	7.56634E-001	-2.41786E-006	0.00000E+000	7.57600E-001	6.54631E-005	10	...........
	652	13.06	7.60723E-001	-2.42954E-006	0.00000E+000	7.61600E-001	6.04590E-005	10	...........
	656	13.14	7.64659E-001	-2.69477E-006	0.00000E+000	7.65600E-001	6.98000E-005	10	...........
	660	13.22	7.68716E-001	-2.33446E-006	0.00000E+000	7.69600E-001	6.52963E-005	10	...........
	664	13.3	7.72653E-001	-2.42120E-006	0.00000E+000	7.73600E-001	6.92996E-005	10	...........
	668	13.38	7.76692E-001	-2.56299E-006	0.00000E+000	7.77600E-001	6.20436E-005	10	...........
	672	13.46	7.80651E-001	-2.67642E-006	0.00000E+000	7.81600E-001	6.36283E-005	10	...........
	676	13.54	7.84736E-001	-2.72480E-006	0.00000E+000	7.85600E-001	6.31278E-005	10	...........
	680	13.62	7.88728E-001	-2.69978E-006	0.00000E+000	7.89600E-001	6.24606E-005	10	...........
	684	13.7	7.92738E-001	-2.29943E-006	0.00000E+000	7.93600E-001	6.39619E-005	10	...........
	688	13.78	7.96633E-001	-2.79319E-006	0.00000E+000	7.97600E-001	6.45457E-005	10	...........
	692	13.86	7.96648E-001	-2.77151E-006	0.00000E+000	7.97600E-001	6.75481E-005	10	...........
	696	13.94	7.92752E-001	-2.51295E-006	0.00000E+000	7.93600E-001	6.24606E-005	10	...........
	700	14.02	7.88757E-001	-2.51295E-006	0.00000E+000	7.89600E-001	6.21270E-005	10	...........
	704	14.1	7.84760E-001	-2.59635E-006	0.00000E+000	7.85600E-001	6.42121E-005	10	...........
	708	14.18	7.80670E-001	-2.79986E-006	0.00000E+000	7.81600E-001	6.62971E-005	10	...........
	712	14.26	7.76708E-001	-2.70978E-006	0.00000E+000	7.77600E-001	6.68809E-005	10	...........
	716	14.34	7.72665E-001	-2.51962E-006	0.00000E+000	7.73600E-001	6.89660E-005	10	...........
	720	14.42	7.68738E-001	-2.37449E-006	0.00000E+000	7.69600E-001	6.37951E-005	10	...........
	724	14.5	7.64683E-001	-2.31611E-006	0.00000E+000	7.65600E-001	6.82153E-005	10	...........
	728	14.58	7.60742E-001	-2.34280E-006	0.00000E+000	7.61600E-001	6.92162E-005	10	...........
	732	14.66	7.56664E-001	-2.37449E-006	0.00000E+000	7.57600E-001	6.37117E-005	10	...........
	736	14.74	7.52712E-001	-2.45957E-006	0.00000E+000	7.53600E-001	6.81320E-005	10	...........
	740	14.82	7.48703E-001	-2.30276E-006	0.00000E+000	7.49600E-001	6.40453E-005	10	...........
	744	14.9	7.44757E-001	-2.39451E-006	0.00000E+000	7.45600E-001	6.19602E-005	10	...........
	748	14.98	7.40732E-001	-2.30276E-006	0.00000E+000	7.41600E-001	6.15432E-005	10	...........
	752	15.06	7.36767E-001	-2.48125E-006	0.00000E+000	7.37600E-001	6.53797E-005	10	...........
	756	15.14	7.32716E-001	-2.00751E-006	0.00000E+000	7.33600E-001	6.55465E-005	10	...........
	760	15.22	7.28709E-001	-2.30110E-006	0.00000E+000	7.29600E-001	6.63805E-005	10	...........
	764	15.3	7.24723E-001	-1.99416E-006	0.00000E+000	7.25600E-001	6.95498E-005	10	...........
	768	15.38	7.20768E-001	-1.96747E-006	0.00000E+000	7.21600E-001	7.03838E-005	10	...........
	772	15.46	7.16747E-001	-2.54464E-006	0.00000E+000	7.17600E-001	6.33781E-005	10	...........
	776	15.54	7.12793E-001	-2.21769E-006	0.00000E+000	7.13600E-001	6.41287E-005	10	...........
	780	15.62	7.08768E-001	-2.00417E-006	0.00000E+000	7.09600E-001	6.13764E-005	10	...........
	784	15.7	7.04700E-001	-1.96414E-006	0.00000E+000	7.05600E-001	6.81320E-005	10	...........
	788	15.78	7.00742E-001	-2.17098E-006	0.00000E+000	7.01600E-001	7.33028E-005	10	...........
	792	15.86	6.96781E-001	-2.43288E-006	0.00000E+000	6.97600E-001	7.22186E-005	10	...........
	796	15.94	6.92773E-001	-2.47458E-006	0.00000E+000	6.93600E-001	6.76315E-005	10	...........
	800	16.02	6.88805E-001	-2.05755E-006	0.00000E+000	6.89600E-001	6.56299E-005	10	...........
	804	16.1	6.84792E-001	-2.06089E-006	0.00000E+000	6.85600E-001	6.60469E-005	10	...........
	808	16.18	6.80804E-001	-1.93244E-006	0.00000E+000	6.81600E-001	6.67975E-005	10	...........
	812	16.26	6.76737E-001	-1.96580E-006	0.00000E+000	6.77600E-001	6.55465E-005	10	...........
	816	16.34	6.72790E-001	-1.97248E-006	0.00000E+000	6.73600E-001	6.71311E-005	10	...........
	820	16.42	6.68780E-001	-2.52963E-006	0.00000E+000	6.69600E-001	6.46291E-005	10	...........
	824	16.5	6.64806E-001	-2.31444E-006	0.00000E+000	6.65600E-001	6.90494E-005	10	...........
	828	16.58	6.60918E-001	-2.64640E-006	0.00000E+000	6.61600E-001	6.28776E-005	10	...........
	832	16.66	6.56810E-001	-2.63138E-006	0.00000E+000	6.57600E-001	6.78817E-005	10	...........
	836	16.74	6.52768E-001	-2.76316E-006	0.00000E+000	6.53600E-001	6.90494E-005	10	...........
	840	16.82	6.48803E-001	-2.54130E-006	0.00000E+000	6.49600E-001	7.16348E-005	10	...........
	844	16.9	6.44782E-001	-2.82322E-006	0.00000E+000	6.45600E-001	6.46291E-005	10	...........
	848	16.98	6.40813E-001	-2.70978E-006	0.00000E+000	6.41600E-001	6.96332E-005	10	...........
	852	17.06	6.36871E-001	-2.87660E-006	0.00000E+000	6.37600E-001	6.37951E-005	10	...........
	856	17.14	6.32831E-001	-3.01839E-006	0.00000E+000	6.33600E-001	6.86324E-005	10	...........
	860	17.22	6.29110E-001	-2.70311E-006	0.00000E+000	6.29600E-001	6.73813E-005	10	...........
	864	17.3	6.24814E-001	-2.47124E-006	0.00000E+000	6.25600E-001	6.61303E-005	10	...........
	868	17.38	6.20822E-001	-2.37116E-006	0.00000E+000	6.21600E-001	6.77149E-005	10	...........
	872	17.46	6.16839E-001	-2.59969E-006	0.00000E+000	6.17600E-001	6.70477E-005	10	...........
	876	17.54	6.12884E-001	-2.40619E-006	0.00000E+000	6.13600E-001	6.74647E-005	10	...........
	880	17.62	6.08849E-001	-2.57800E-006	0.00000E+000	6.09600E-001	6.79651E-005	10	...........
	884	17.7	6.04915E-001	-2.48125E-006	0.00000E+000	6.05600E-001	6.20436E-005	10	...........
	888	17.78	6.00852E-001	-1.97248E-006	0.00000E+000	6.01600E-001	6.92996E-005	10	...........
	892	17.86	5.96869E-001	-2.24271E-006	0.00000E+000	5.97600E-001	6.83821E-005	10	...........
	896	17.94	5.92873E-001	-1.65887E-006	0.00000E+000	5.93600E-001	6.54631E-005	10	...........
	900	18.02	5.88990E-001	-1.83235E-006	0.00000E+000	5.89600E-001	6.42955E-005	10	...........
	904	18.1	5.84902E-001	-2.00417E-006	0.00000E+000	5.85600E-001	6.58801E-005	10	...........
	908	18.18	5.80894E-001	-1.85070E-006	0.00000E+000	5.81600E-001	6.45457E-005	10	...........
	912	18.26	5.76845E-001	-2.12594E-006	0.00000E+000	5.77600E-001	6.42955E-005	10	...........
	916	18.34	5.72885E-001	-2.20935E-006	0.00000E+000	5.73600E-001	6.52129E-005	10	...........
	920	18.42	5.68897E-001	-2.05588E-006	0.00000E+000	5.69600E-001	6.46291E-005	10	...........
	924	18.5	5.65019E-001	-2.09925E-006	0.00000E+000	5.65600E-001	6.55465E-005	10	...........
	928	18.58	5.60896E-001	-2.04087E-006	0.00000E+000	5.61600E-001	6.60469E-005	10	...........
	932	18.66	5.57009E-001	-2.22436E-006	0.00000E+000	5.57600E-001	5.88744E-005	10	...........
	936	18.74	5.52904E-001	-2.07924E-006	0.00000E+000	5.53600E-001	6.13764E-005	10	...........
	940	18.82	5.48868E-001	-2.39951E-006	0.00000E+000	5.49600E-001	6.66307E-005	10	...........
	944	18.9	5.44889E-001	-2.22103E-006	0.00000E+000	5.45600E-001	6.71311E-005	10	...........
	948	18.98	5.40991E-001	-1.85070E-006	0.00000E+000	5.41600E-001	6.53797E-005	10	...........
	952	19.06	5.36928E-001	-2.19767E-006	0.00000E+000	5.37600E-001	6.38785E-005	10	...........
	956	19.14	5.33139E-001	-2.38951E-006	0.00000E+000	5.33600E-001	6.47125E-005	10	...........
	960	19.22	5.28922E-001	-2.04254E-006	0.00000E+000	5.29600E-001	6.64639E-005	10	...........
	964	19.3	5.24899E-001	-2.29442E-006	0.00000E+000	5.25600E-001	6.52129E-005	10	...........
	968	19.38	5.20912E-001	-2.41119E-006	0.00000E+000	5.21600E-001	6.87992E-005	10	...........
	972	19.46	5.16950E-001	-2.29609E-006	0.00000E+000	5.17600E-001	6.52129E-005	10	...........
	976	19.54	5.12917E-001	-2.65474E-006	0.00000E+000	5.13600E-001	6.55465E-005	10	...........
	980	19.62	5.09090E-001	-2.57133E-006	0.00000E+000	5.09600E-001	6.82987E-005	10	...........
	984	19.7	5.04952E-001	-2.19267E-006	0.00000E+000	5.05600E-001	7.20518E-005	10	...........
	988	19.78	5.01122E-001	-2.38450E-006	0.00000E+000	5.01600E-001	6.92162E-005	10	...........
	992	19.86	4.96944E-001	-2.37616E-006	0.00000E+000	4.97600E-001	7.86405E-005	10	...........
	996	19.94	4.93010E-001	-2.60803E-006	0.00000E+000	4.93600E-001	6.59635E-005	10	...........
	1000	20.02	4.88954E-001	-2.37116E-006	0.00000E+000	4.89600E-001	7.30526E-005	10	...........
	1004	20.1	4.85110E-001	-2.56299E-006	0.00000E+000	4.85600E-001	6.78817E-005	10	...........
	1008	20.18	4.80950E-001	-2.77818E-006	0.00000E+000	4.81600E-001	6.89660E-005	10	...........
	1012	20.26	4.77118E-001	-2.79152E-006	0.00000E+000	4.77600E-001	6.63805E-005	10	...........
	1016	20.34	4.72940E-001	-2.60303E-006	0.00000E+000	4.73600E-001	6.66307E-005	10	...........
	1020	20.42	4.69032E-001	-2.83323E-006	0.00000E+000	4.69600E-001	6.62971E-005	10	...........
	1024	20.5	4.64970E-001	-2.51295E-006	0.00000E+000	4.65600E-001	6.77149E-005	10	...........
	1028	20.58	4.61141E-001	-2.81821E-006	0.00000E+000	4.61600E-001	6.89660E-005	10	...........
	1032	20.66	4.56974E-001	-2.74648E-006	0.00000E+000	4.57600E-001	7.28858E-005	10	...........
	1036	20.74	4.53011E-001	-2.68810E-006	0.00000E+000	4.53600E-001	7.23020E-005	10	...........
	1040	20.82	4.48926E-001	-2.51962E-006	0.00000E+000	4.49600E-001	7.01336E-005	10	...........
	1044	20.9	4.45021E-001	-2.60469E-006	0.00000E+000	4.45600E-001	6.81320E-005	10	...........
	1048	20.98	4.40980E-001	-2.34780E-006	0.00000E+000	4.41600E-001	7.16348E-005	10	...........
	1052	21.06	4.37163E-001	-2.46123E-006	0.00000E+000	4.37600E-001	6.95498E-005	10	...........
	1056	21.14	4.32981E-001	-2.14096E-006	0.00000E+000	4.33600E-001	7.53045E-005	10	...........
	1060	21.22	4.29177E-001	-2.23937E-006	0.00000E+000	4.29600E-001	6.84655E-005	10	...........
	1064	21.3	4.24980E-001	-2.21102E-006	0.00000E+000	4.25600E-001	6.92996E-005	10	...........
	1068	21.38	4.20992E-001	-2.34280E-006	0.00000E+000	4.21600E-001	7.08008E-005	10	...........
	1072	21.46	4.16965E-001	-2.29275E-006	0.00000E+000	4.17600E-001	7.02170E-005	10	...........
	1076	21.54	4.13124E-001	-2.62137E-006	0.00000E+000	4.13600E-001	7.14680E-005	10	...........
	1080	21.62	4.08993E-001	-2.11427E-006	0.00000E+000	4.09600E-001	7.29692E-005	10	...........
	1084	21.7	4.05184E-001	-2.11427E-006	0.00000E+000	4.05600E-001	6.80485E-005	10	...........
	1088	21.78	4.00990E-001	-2.44122E-006	0.00000E+000	4.01600E-001	7.10510E-005	10	...........
	1092	21.86	3.97080E-001	-2.40952E-006	0.00000E+000	3.97600E-001	7.03838E-005	10	...........
	1096	21.94	3.93001E-001	-2.34447E-006	0.00000E+000	3.93600E-001	7.36364E-005	10	...........
	1100	22.02	3.89138E-001	-2.03420E-006	0.00000E+000	3.89600E-001	6.80485E-005	10	...........
	1104	22.1	3.84992E-001	-2.26106E-006	0.00000E+000	3.85600E-001	7.00502E-005	10	...........
	1108	22.18	3.81179E-001	-2.06089E-006	0.00000E+000	3.81600E-001	5.86242E-005	10	...........
	1112	22.26	3.76994E-001	-2.03253E-006	0.00000E+000	3.77600E-001	7.35530E-005	10	...........
	1116	22.34	3.73184E-001	-2.16598E-006	0.00000E+000	3.73600E-001	6.73813E-005	10	...........
	1120	22.42	3.69015E-001	-2.21268E-006	0.00000E+000	3.69600E-001	7.26356E-005	10	...........
	1124	22.5	3.65153E-001	-1.85070E-006	0.00000E+000	3.65600E-001	6.93830E-005	10	...........
	1128	22.58	3.60998E-001	-1.64719E-006	0.00000E+000	3.61600E-001	6.73813E-005	10	...........
	1132	22.66	3.57172E-001	-2.07089E-006	0.00000E+000	3.57600E-001	6.68809E-005	10	...........
	1136	22.74	3.52981E-001	-1.47204E-006	0.00000E+000	3.53600E-001	6.98834E-005	10	...........
	1140	22.82	3.49173E-001	-1.86905E-006	0.00000E+000	3.49600E-001	6.27942E-005	10	...........
	1144	22.9	3.45014E-001	-2.18266E-006	0.00000E+000	3.45600E-001	6.62971E-005	10	...........
	1148	22.98	3.41147E-001	-1.63718E-006	0.00000E+000	3.41600E-001	6.94664E-005	10	...........
	1152	23.06	3.37002E-001	-1.25352E-006	0.00000E+000	3.37600E-001	6.84655E-005	10	...........
	1156	23.14	3.33186E-001	-1.90242E-006	0.00000E+000	3.33600E-001	6.36283E-005	10	...........
	1160	23.22	3.29003E-001	-1.77897E-006	0.00000E+000	3.29600E-001	7.03838E-005	10	...........
	1164	23.3	3.25183E-001	-2.16931E-006	0.00000E+000	3.25600E-001	6.62971E-005	10	...........
	1168	23.38	3.20982E-001	-2.11927E-006	0.00000E+000	3.21600E-001	6.88826E-005	10	...........
	1172	23.46	3.17146E-001	-1.69390E-006	0.00000E+000	3.17600E-001	6.53797E-005	10	...........
	1176	23.54	3.13016E-001	-1.65887E-006	0.00000E+000	3.13600E-001	7.18016E-005	10	...........
	1180	23.62	3.09186E-001	-1.68890E-006	0.00000E+000	3.09600E-001	6.74647E-005	10	...........
	1184	23.7	3.05016E-001	-1.49873E-006	0.00000E+000	3.05600E-001	7.22186E-005	10	...........
	1188	23.78	3.01191E-001	-2.32278E-006	0.00000E+000	3.01600E-001	6.60469E-005	10	...........
	1192	23.86	2.96996E-001	-1.68556E-006	0.00000E+000	2.97600E-001	7.06340E-005	10	...........
	1196	23.94	2.93135E-001	-1.79399E-006	0.00000E+000	2.93600E-001	6.71311E-005	10	...........
	1200	24.02	2.89046E-001	-2.21602E-006	0.00000E+000	2.89600E-001	7.13012E-005	10	...........
	1204	24.1	2.85187E-001	-1.50373E-006	0.00000E+000	2.85600E-001	7.24688E-005	10	...........
	1208	24.18	2.81034E-001	-1.70057E-006	0.00000E+000	2.81600E-001	7.23020E-005	10	...........
	1212	24.26	2.77195E-001	-2.08090E-006	0.00000E+000	2.77600E-001	6.82153E-005	10	...........
	1216	24.34	2.73002E-001	-1.74561E-006	0.00000E+000	2.73600E-001	7.29692E-005	10	...........
	1220	24.42	2.69173E-001	-2.26273E-006	0.00000E+000	2.69600E-001	6.76315E-005	10	...........
	1224	24.5	2.65081E-001	-2.16097E-006	0.00000E+000	2.65600E-001	6.67975E-005	10	...........
	1228	24.58	2.61192E-001	-2.27774E-006	0.00000E+000	2.61600E-001	6.44623E-005	10	...........
	1232	24.66	2.57025E-001	-2.14763E-006	0.00000E+000	2.57600E-001	7.18016E-005	10	...........
	1236	24.74	2.53198E-001	-2.61637E-006	0.00000E+000	2.53600E-001	6.35449E-005	10	...........
	1240	24.82	2.49013E-001	-2.57300E-006	0.00000E+000	2.49600E-001	6.79651E-005	10	...........
	1244	24.9	2.45198E-001	-2.94999E-006	0.00000E+000	2.45600E-001	5.95416E-005	10	...........
	1248	24.98	2.41099E-001	-2.53797E-006	0.00000E+000	2.41600E-001	7.28858E-005	10	...........
	1252	25.06	2.37198E-001	-2.06923E-006	0.00000E+000	2.37600E-001	6.62137E-005	10	...........
	1256	25.14	2.33037E-001	-1.95913E-006	0.00000E+000	2.33600E-001	6.65473E-005	10	...........
	1260	25.22	2.29204E-001	-2.37950E-006	0.00000E+000	2.29600E-001	6.52963E-005	10	...........
	1264	25.3	2.25039E-001	-2.27274E-006	0.00000E+000	2.25600E-001	6.73813E-005	10	...........
	1268	25.38	2.21209E-001	-2.81654E-006	0.00000E+000	2.21600E-001	7.00502E-005	10	...........
	1272	25.46	2.17112E-001	-2.80153E-006	0.00000E+000	2.17600E-001	6.07926E-005	10	...........
	1276	25.54	2.13199E-001	-2.65640E-006	0.00000E+000	2.13600E-001	6.27942E-005	10	...........
	1280	25.62	2.09075E-001	-2.19600E-006	0.00000E+000	2.09600E-001	7.17182E-005	10	...........
	1284	25.7	2.05204E-001	-2.46457E-006	0.00000E+000	2.05600E-001	6.87158E-005	10	...........
	1288	25.78	2.01099E-001	-2.18600E-006	0.00000E+000	2.01600E-001	7.22186E-005	10	...........
	1292	25.86	1.97219E-001	-1.98582E-006	0.00000E+000	1.97600E-001	6.64639E-005	10	...........
	1296	25.94	1.93037E-001	-2.51128E-006	0.00000E+000	1.93600E-001	6.37117E-005	10	...........
	1300	26.02	1.89223E-001	-1.84737E-006	0.00000E+000	1.89600E-001	6.63805E-005	10	...........
	1304	26.1	1.85153E-001	-2.51461E-006	0.00000E+000	1.85600E-001	6.97166E-005	10	...........
	1308	26.18	1.81227E-001	-1.96580E-006	0.00000E+000	1.81600E-001	6.78817E-005	10	...........
	1312	26.26	1.77160E-001	-2.50294E-006	0.00000E+000	1.77600E-001	6.99668E-005	10	...........
	1316	26.34	1.73242E-001	-2.58634E-006	0.00000E+000	1.73600E-001	6.70477E-005	10	...........
	1320	26.42	1.69042E-001	-2.61804E-006	0.00000E+000	1.69600E-001	6.59635E-005	10	...........
	1324	26.5	1.65228E-001	-2.46123E-006	0.00000E+000	1.65600E-001	6.79651E-005	10	...........
	1328	26.58	1.61202E-001	-2.40285E-006	0.00000E+000	1.61600E-001	7.13846E-005	10	...........
	1332	26.66	1.57247E-001	-2.28942E-006	0.00000E+000	1.57600E-001	7.02170E-005	10	...........
	1336	26.74	1.53168E-001	-2.43288E-006	0.00000E+000	1.53600E-001	6.54631E-005	10	...........
	1340	26.82	1.49254E-001	-2.15430E-006	0.00000E+000	1.49600E-001	6.59635E-005	10	...........
	1344	26.9	1.45080E-001	-2.23937E-006	0.00000E+000	1.45600E-001	6.93830E-005	10	...........
	1348	26.98	1.41253E-001	-2.34780E-006	0.00000E+000	1.41600E-001	5.91246E-005	10	...........
	1352	27.06	1.37214E-001	-2.20268E-006	0.00000E+000	1.37600E-001	6.40453E-005	10	...........
	1356	27.14	1.33260E-001	-1.99249E-006	0.00000E+000	1.33600E-001	6.05424E-005	10	...........
	1360	27.22	1.29158E-001	-2.72980E-006	0.00000E+000	1.29600E-001	6.62137E-005	10	...........
	1364	27.3	1.25287E-001	-2.47291E-006	0.00000E+000	1.25600E-001	6.67141E-005	10	...........
	1368	27.38	1.21166E-001	-2.30110E-006	0.00000E+000	1.21600E-001	6.61303E-005	10	...........
	1372	27.46	1.17294E-001	-2.50794E-006	0.00000E+000	1.17600E-001	7.05506E-005	10	...........
	1376	27.54	1.13242E-001	-2.44622E-006	0.00000E+000	1.13600E-001	7.13846E-005	10	...........
	1380	27.62	1.09284E-001	-2.77484E-006	0.00000E+000	1.09600E-001	6.79651E-005	10	...........
	1384	27.7	1.05219E-001	-3.17519E-006	0.00000E+000	1.05600E-001	7.18850E-005	10	...........
	1388	27.78	1.01316E-001	-3.05175E-006	0.00000E+000	1.01600E-001	6.37951E-005	10	...........
	1392	27.86	9.72427E-002	-3.41707E-006	0.00000E+000	9.76000E-002	6.99668E-005	10	...........
	1396	27.94	9.33192E-002	-3.28362E-006	0.00000E+000	9.36000E-002	6.75481E-005	10	...........
	1400	28.02	8.92535E-002	-3.01505E-006	0.00000E+000	8.96000E-002	6.50461E-005	10	...........
	1404	28.1	8.53068E-002	-3.31031E-006	0.00000E+000	8.56000E-002	6.42121E-005	10	...........
	1408	28.18	8.12847E-002	-2.57133E-006	0.00000E+000	8.16000E-002	7.30526E-005	10	...........
	1412	28.26	7.73145E-002	-2.77484E-006	0.00000E+000	7.76000E-002	7.00502E-005	10	...........
	1416	28.34	7.33055E-002	-2.47625E-006	0.00000E+000	7.36000E-002	6.95498E-005	10	...........
	1420	28.42	6.93530E-002	-3.24025E-006	0.00000E+000	6.96000E-002	6.32947E-005	10	...........
	1424	28.5	6.51815E-002	-2.99670E-006	0.00000E+000	6.56000E-002	7.03004E-005	10	...........
	1428	28.58	6.13343E-002	-3.34200E-006	0.00000E+000	6.16000E-002	6.83821E-005	10	...........
	1432	28.66	5.73007E-002	-3.25526E-006	0.00000E+000	5.76000E-002	7.03838E-005	10	...........
	1436	28.74	5.33600E-002	-2.96167E-006	0.00000E+000	5.36000E-002	6.85490E-005	10	...........
	1440	28.82	4.93279E-002	-3.22190E-006	0.00000E+000	4.96000E-002	7.11344E-005	10	...........
	1444	28.9	4.53693E-002	-3.24692E-006	0.00000E+000	4.56000E-002	6.32113E-005	10	...........
	1448	28.98	4.12162E-002	-3.15017E-006	0.00000E+000	4.16000E-002	7.27190E-005	10	...........
	1452	29.06	3.73362E-002	-3.03674E-006	0.00000E+000	3.76000E-002	7.19684E-005	10	...........
	1456	29.14	3.33346E-002	-3.21689E-006	0.00000E+000	3.36000E-002	7.30526E-005	10	...........
	1460	29.22	2.93638E-002	-2.91330E-006	0.00000E+000	2.96000E-002	7.67223E-005	10	...........
	1464	29.3	2.53772E-002	-3.23357E-006	0.00000E+000	2.56000E-002	7.53045E-005	10	...........
	1468	29.38	2.13975E-002	-2.75482E-006	0.00000E+000	2.16000E-002	7.56381E-005	10	...........
	1472	29.46	1.73086E-002	-2.71979E-006	0.00000E+000	1.76000E-002	7.52211E-005	10	...........
	1476	29.54	1.33150E-002	-2.57967E-006	0.00000E+000	1.36000E-002	6.96332E-005	10	...........
	1480	29.62	9.30317E-003	-2.93999E-006	0.00000E+000	9.60001E-003	7.25522E-005	10	...........
	1484	29.7	5.35002E-003	-3.06843E-006	0.00000E+000	5.60001E-003	7.04672E-005	10	...........
	1488	29.78	1.31405E-003	-2.89328E-006	0.00000E+000	1.60001E-003	6.75481E-005	10	...........
	1492	29.86	-2.54419E-003	-2.82989E-006	0.00000E+000	-2.40000E-003	6.59635E-005	10	...........
	1496	29.94	-6.62111E-003	-2.81488E-006	0.00000E+000	-6.39999E-003	6.67141E-005	10	...........
	1500	30.02	-1.06081E-002	-2.74315E-006	0.00000E+000	-1.04000E-002	7.39701E-005	10	...........
	1504	30.1	-1.46380E-002	-2.77651E-006	0.00000E+000	-1.44000E-002	6.85490E-005	10	...........
	1508	30.18	-1.85786E-002	-2.53130E-006	0.00000E+000	-1.84000E-002	7.13012E-005	10	...........
	1512	30.26	-2.26173E-002	-2.73647E-006	0.00000E+000	-2.24000E-002	7.32194E-005	10	...........
	1516	30.34	-2.65264E-002	-2.91496E-006	0.00000E+000	-2.64000E-002	6.80485E-005	10	...........
	1520	30.42	-3.05553E-002	-2.86826E-006	0.00000E+000	-3.04000E-002	6.41287E-005	10	...........
	1524	30.5	-3.45257E-002	-2.77818E-006	0.00000E+000	-3.44000E-002	6.70477E-005	10	...........
	1528	30.58	-3.86098E-002	-3.28362E-006	0.00000E+000	-3.84000E-002	6.71311E-005	10	...........
	1532	30.66	-4.25758E-002	-3.12848E-006	0.00000E+000	-4.24000E-002	6.38785E-005	10	...........
	1536	30.74	-4.65911E-002	-3.01338E-006	0.00000E+000	-4.64000E-002	7.11344E-005	10	...........
	1540	30.82	-5.05482E-002	-3.20855E-006	0.00000E+000	-5.04000E-002	7.20518E-005	10	...........
	1544	30.9	-5.46024E-002	-3.24191E-006	0.00000E+000	-5.44000E-002	6.72979E-005	10	...........
	1548	30.98	-5.85492E-002	-3.06176E-006	0.00000E+000	-5.84000E-002	6.88826E-005	10	...........
	1552	31.06	-6.26431E-002	-3.01338E-006	0.00000E+000	-6.24000E-002	7.09676E-005	10	...........
	1556	31.14	-6.65703E-002	-2.81154E-006	0.00000E+000	-6.64000E-002	6.98000E-005	10	...........
	1560	31.22	-7.05819E-002	-3.16184E-006	0.00000E+000	-7.04000E-002	7.27190E-005	10	...........
	1564	31.3	-7.45217E-002	-3.42040E-006	0.00000E+000	-7.44000E-002	6.79651E-005	10	...........
	1568	31.38	-7.85215E-002	-3.24859E-006	0.00000E+000	-7.84000E-002	6.52129E-005	10	...........
	1572	31.46	-8.24945E-002	-3.16184E-006	0.00000E+000	-8.24000E-002	6.54631E-005	10	...........
	1576	31.54	-8.65804E-002	-3.27361E-006	0.00000E+000	-8.64000E-002	6.42955E-005	10	...........
	1580	31.62	-9.05599E-002	-2.80820E-006	0.00000E+000	-9.04000E-002	6.64639E-005	10	...........
[...]
	12589	251.8	-3.00988E-001	-3.22857E-006	0.00000E+000	-3.01000E-001	7.00502E-005	10	...........
	12591	251.84	-2.98935E-001	-3.04674E-006	0.00000E+000	-2.99000E-001	6.98000E-005	10	...........
	12593	251.88	-2.96979E-001	-2.95166E-006	0.00000E+000	-2.97000E-001	7.13012E-005	10	...........
	12595	251.92	-2.95010E-001	-3.38704E-006	0.00000E+000	-2.95000E-001	7.09676E-005	10	...........
	12597	251.96	-2.93030E-001	-3.14850E-006	0.00000E+000	-2.93000E-001	7.03004E-005	10	...........
	12599	252	-2.90839E-001	-3.02673E-006	0.00000E+000	-2.91000E-001	6.99668E-005	10	...........
	12601	252.04	-2.88915E-001	-3.05342E-006	0.00000E+000	-2.89000E-001	6.66307E-005	10	...........
	12603	252.08	-2.87032E-001	-3.32699E-006	0.00000E+000	-2.87000E-001	6.88826E-005	10	...........
	12605	252.12	-2.84992E-001	-3.60390E-006	0.00000E+000	-2.85000E-001	6.88826E-005	10	...........
	12607	252.16	-2.82872E-001	-3.55052E-006	0.00000E+000	-2.83000E-001	6.93830E-005	10	...........
	12609	252.2	-2.80960E-001	-3.38204E-006	0.00000E+000	-2.81000E-001	7.50543E-005	10	...........
	12611	252.24	-2.79017E-001	-3.09345E-006	0.00000E+000	-2.79000E-001	6.99668E-005	10	...........
	12613	252.28	-2.77015E-001	-3.38204E-006	0.00000E+000	-2.77000E-001	7.23020E-005	10	...........
	12615	252.32	-2.74937E-001	-3.02506E-006	0.00000E+000	-2.75000E-001	6.87158E-005	10	...........
	12617	252.36	-2.73007E-001	-3.36702E-006	0.00000E+000	-2.73000E-001	7.48041E-005	10	...........
	12619	252.4	-2.71025E-001	-3.12515E-006	0.00000E+000	-2.71000E-001	7.12178E-005	10	...........
	12621	252.44	-2.69041E-001	-2.83489E-006	0.00000E+000	-2.69000E-001	6.97166E-005	10	...........
	12623	252.48	-2.66903E-001	-3.30363E-006	0.00000E+000	-2.67000E-001	6.67975E-005	10	...........
	12625	252.52	-2.64961E-001	-3.26527E-006	0.00000E+000	-2.65000E-001	7.20518E-005	10	...........
	12627	252.56	-2.63021E-001	-2.74482E-006	0.00000E+000	-2.63000E-001	6.89660E-005	10	...........
	12629	252.6	-2.60999E-001	-3.35868E-006	0.00000E+000	-2.61000E-001	6.95498E-005	10	...........
	12631	252.64	-2.58889E-001	-3.65728E-006	0.00000E+000	-2.59000E-001	6.39619E-005	10	...........
	12633	252.68	-2.56967E-001	-3.04508E-006	0.00000E+000	-2.57000E-001	7.20518E-005	10	...........
	12635	252.72	-2.55027E-001	-2.97668E-006	0.00000E+000	-2.55000E-001	7.29692E-005	10	...........
	12637	252.76	-2.53050E-001	-3.01839E-006	0.00000E+000	-2.53000E-001	7.38032E-005	10	...........
	12639	252.8	-2.50958E-001	-2.89661E-006	0.00000E+000	-2.51000E-001	6.87158E-005	10	...........
	12641	252.84	-2.49008E-001	-2.74648E-006	0.00000E+000	-2.49000E-001	7.13846E-005	10	...........
	12643	252.88	-2.47050E-001	-3.62225E-006	0.00000E+000	-2.47000E-001	7.03838E-005	10	...........
	12645	252.92	-2.45067E-001	-3.27528E-006	0.00000E+000	-2.45000E-001	7.47207E-005	10	...........
	12647	252.96	-2.43032E-001	-2.87493E-006	0.00000E+000	-2.43000E-001	6.82153E-005	10	...........
	12649	253	-2.41007E-001	-3.21356E-006	0.00000E+000	-2.41000E-001	7.55547E-005	10	...........
	12651	253.04	-2.39021E-001	-2.96334E-006	0.00000E+000	-2.39000E-001	7.23020E-005	10	...........
	12653	253.08	-2.37034E-001	-2.67642E-006	0.00000E+000	-2.37000E-001	7.47207E-005	10	...........
	12655	253.12	-2.34853E-001	-2.90329E-006	0.00000E+000	-2.35000E-001	6.70477E-005	10	...........
	12657	253.16	-2.32980E-001	-3.04841E-006	0.00000E+000	-2.33000E-001	7.04672E-005	10	...........
	12659	253.2	-2.31021E-001	-2.99670E-006	0.00000E+000	-2.31000E-001	6.77983E-005	10	...........
	12661	253.24	-2.29058E-001	-2.84824E-006	0.00000E+000	-2.29000E-001	7.12178E-005	10	...........
	12663	253.28	-2.26948E-001	-3.17686E-006	0.00000E+000	-2.27000E-001	6.74647E-005	10	...........
	12665	253.32	-2.25024E-001	-2.91163E-006	0.00000E+000	-2.25000E-001	7.19684E-005	10	...........
	12667	253.36	-2.23066E-001	-2.65140E-006	0.00000E+000	-2.23000E-001	7.49709E-005	10	...........
	12669	253.4	-2.21071E-001	-2.71479E-006	0.00000E+000	-2.21000E-001	7.61385E-005	10	...........
	12671	253.44	-2.19060E-001	-2.66641E-006	0.00000E+000	-2.19000E-001	7.26356E-005	10	...........
	12673	253.48	-2.17051E-001	-2.92330E-006	0.00000E+000	-2.17000E-001	6.78817E-005	10	...........
	12675	253.52	-2.15042E-001	-3.01005E-006	0.00000E+000	-2.15000E-001	6.94664E-005	10	...........
	12677	253.56	-2.13044E-001	-2.79819E-006	0.00000E+000	-2.13000E-001	7.31360E-005	10	...........
	12679	253.6	-2.10904E-001	-2.96167E-006	0.00000E+000	-2.11000E-001	7.46373E-005	10	...........
	12681	253.64	-2.08997E-001	-2.81154E-006	0.00000E+000	-2.09000E-001	7.35530E-005	10	...........
	12683	253.68	-2.07031E-001	-2.73981E-006	0.00000E+000	-2.07000E-001	7.63887E-005	10	...........
	12685	253.72	-2.05057E-001	-3.11681E-006	0.00000E+000	-2.05000E-001	7.48875E-005	10	...........
	12687	253.76	-2.02959E-001	-3.22857E-006	0.00000E+000	-2.03000E-001	6.63805E-005	10	...........
	12689	253.8	-2.01042E-001	-2.69477E-006	0.00000E+000	-2.01000E-001	7.27190E-005	10	...........
	12691	253.84	-1.99061E-001	-2.60636E-006	0.00000E+000	-1.99000E-001	6.95498E-005	10	...........
	12693	253.88	-1.97094E-001	-2.75816E-006	0.00000E+000	-1.97000E-001	7.40535E-005	10	...........
	12695	253.92	-1.95069E-001	-2.65807E-006	0.00000E+000	-1.95000E-001	6.92996E-005	10	...........
	12697	253.96	-1.93093E-001	-3.20688E-006	0.00000E+000	-1.93000E-001	7.73895E-005	10	...........
	12699	254	-1.91104E-001	-3.09846E-006	0.00000E+000	-1.91000E-001	7.23020E-005	10	...........
	12701	254.04	-1.89102E-001	-3.06509E-006	0.00000E+000	-1.89000E-001	7.60551E-005	10	...........
	12703	254.08	-1.87014E-001	-2.95166E-006	0.00000E+000	-1.87000E-001	7.33862E-005	10	...........
	12705	254.12	-1.85019E-001	-3.11681E-006	0.00000E+000	-1.85000E-001	7.12178E-005	10	...........
	12707	254.16	-1.83042E-001	-2.65640E-006	0.00000E+000	-1.83000E-001	7.11344E-005	10	...........
	12709	254.2	-1.81052E-001	-2.63472E-006	0.00000E+000	-1.81000E-001	7.26356E-005	10	...........
	12711	254.24	-1.78920E-001	-2.66308E-006	0.00000E+000	-1.79000E-001	6.27108E-005	10	...........
	12713	254.28	-1.77052E-001	-2.68977E-006	0.00000E+000	-1.77000E-001	7.09676E-005	10	...........
	12715	254.32	-1.75060E-001	-2.56966E-006	0.00000E+000	-1.75000E-001	7.19684E-005	10	...........
	12717	254.36	-1.73117E-001	-3.00838E-006	0.00000E+000	-1.73000E-001	7.23854E-005	10	...........
	12719	254.4	-1.71077E-001	-2.97168E-006	0.00000E+000	-1.71000E-001	6.69643E-005	10	...........
	12721	254.44	-1.69095E-001	-2.57467E-006	0.00000E+000	-1.69000E-001	7.61385E-005	10	...........
	12723	254.48	-1.67122E-001	-2.76984E-006	0.00000E+000	-1.67000E-001	7.04672E-005	10	...........
	12725	254.52	-1.65167E-001	-2.67976E-006	0.00000E+000	-1.65000E-001	7.33028E-005	10	...........
	12727	254.56	-1.62968E-001	-2.81321E-006	0.00000E+000	-1.63000E-001	6.13764E-005	10	...........
	12729	254.6	-1.61082E-001	-2.90162E-006	0.00000E+000	-1.61000E-001	6.95498E-005	10	...........
	12731	254.64	-1.59108E-001	-2.93999E-006	0.00000E+000	-1.59000E-001	6.95498E-005	10	...........
	12733	254.68	-1.57117E-001	-2.65974E-006	0.00000E+000	-1.57000E-001	7.33862E-005	10	...........
	12735	254.72	-1.55066E-001	-2.92664E-006	0.00000E+000	-1.55000E-001	6.48793E-005	10	...........
	12737	254.76	-1.53078E-001	-2.56299E-006	0.00000E+000	-1.53000E-001	7.27190E-005	10	...........
	12739	254.8	-1.51074E-001	-2.32445E-006	0.00000E+000	-1.51000E-001	7.19684E-005	10	...........
	12741	254.84	-1.49108E-001	-2.43955E-006	0.00000E+000	-1.49000E-001	7.06340E-005	10	...........
	12743	254.88	-1.47070E-001	-2.33613E-006	0.00000E+000	-1.47000E-001	7.08008E-005	10	...........
	12745	254.92	-1.45097E-001	-2.71145E-006	0.00000E+000	-1.45000E-001	7.18850E-005	10	...........
	12747	254.96	-1.43107E-001	-2.48959E-006	0.00000E+000	-1.43000E-001	6.78817E-005	10	...........
	12749	255	-1.41139E-001	-2.38116E-006	0.00000E+000	-1.41000E-001	6.88826E-005	10	...........
	12751	255.04	-1.38973E-001	-2.58468E-006	0.00000E+000	-1.39000E-001	6.07926E-005	10	...........
	12753	255.08	-1.37080E-001	-2.43455E-006	0.00000E+000	-1.37000E-001	6.98000E-005	10	...........
	12755	255.12	-1.35076E-001	-2.19767E-006	0.00000E+000	-1.35000E-001	6.76315E-005	10	...........
	12757	255.16	-1.33120E-001	-2.42287E-006	0.00000E+000	-1.33000E-001	7.03838E-005	10	...........
	12759	255.2	-1.30996E-001	-2.72480E-006	0.00000E+000	-1.31000E-001	6.64639E-005	10	...........
	12761	255.24	-1.29082E-001	-2.33446E-006	0.00000E+000	-1.29000E-001	7.02170E-005	10	...........
	12763	255.28	-1.27111E-001	-2.31611E-006	0.00000E+000	-1.27000E-001	6.73813E-005	10	...........
	12765	255.32	-1.25155E-001	-2.79152E-006	0.00000E+000	-1.25000E-001	7.45539E-005	10	...........
	12767	255.36	-1.23135E-001	-2.50794E-006	0.00000E+000	-1.23000E-001	6.75481E-005	10	...........
	12769	255.4	-1.21113E-001	-2.40619E-006	0.00000E+000	-1.21000E-001	7.33028E-005	10	...........
	12771	255.44	-1.19140E-001	-2.42287E-006	0.00000E+000	-1.19000E-001	6.83821E-005	10	...........
	12773	255.48	-1.17158E-001	-2.42787E-006	0.00000E+000	-1.17000E-001	7.38032E-005	10	...........
	12775	255.52	-1.15148E-001	-2.23437E-006	0.00000E+000	-1.15000E-001	6.54631E-005	10	...........
	12777	255.56	-1.13138E-001	-2.33279E-006	0.00000E+000	-1.13000E-001	7.35530E-005	10	...........
	12779	255.6	-1.11100E-001	-1.90909E-006	0.00000E+000	-1.11000E-001	6.82987E-005	10	...........
	12781	255.64	-1.09186E-001	-2.26940E-006	0.00000E+000	-1.09000E-001	7.03838E-005	10	...........
	12783	255.68	-1.06977E-001	-2.31611E-006	0.00000E+000	-1.07000E-001	6.77149E-005	10	...........
	12785	255.72	-1.05100E-001	-2.13762E-006	0.00000E+000	-1.05000E-001	7.52211E-005	10	...........
	12787	255.76	-1.03103E-001	-2.23437E-006	0.00000E+000	-1.03000E-001	6.78817E-005	10	...........
	12789	255.8	-1.01200E-001	-2.44122E-006	0.00000E+000	-1.01000E-001	7.14680E-005	10	...........
	12791	255.84	-9.91281E-002	-2.32278E-006	0.00000E+000	-9.90000E-002	6.87992E-005	10	...........
	12793	255.88	-9.71401E-002	-2.20101E-006	0.00000E+000	-9.70000E-002	7.52211E-005	10	...........
	12795	255.92	-9.51631E-002	-2.07590E-006	0.00000E+000	-9.50000E-002	7.58883E-005	10	...........
	12797	255.96	-9.31928E-002	-2.43955E-006	0.00000E+000	-9.30000E-002	7.61385E-005	10	...........
	12799	256	-9.11961E-002	-2.35781E-006	0.00000E+000	-9.10000E-002	7.43871E-005	10	...........
	12801	256.04	-8.91591E-002	-2.20101E-006	0.00000E+000	-8.90000E-002	7.21352E-005	10	...........
	12803	256.08	-8.71327E-002	-2.37449E-006	0.00000E+000	-8.70000E-002	6.78817E-005	10	...........
	12805	256.12	-8.52546E-002	-2.25272E-006	0.00000E+000	-8.50000E-002	7.63887E-005	10	...........
	12807	256.16	-8.30736E-002	-2.57300E-006	0.00000E+000	-8.30000E-002	7.18016E-005	10	...........
	12809	256.2	-8.11289E-002	-2.59802E-006	0.00000E+000	-8.10000E-002	7.71393E-005	10	...........
	12811	256.24	-7.91173E-002	-2.14930E-006	0.00000E+000	-7.90000E-002	7.17182E-005	10	...........
	12813	256.28	-7.71662E-002	-2.27774E-006	0.00000E+000	-7.70000E-002	7.21352E-005	10	...........
	12815	256.32	-7.51350E-002	-2.37783E-006	0.00000E+000	-7.50000E-002	6.81320E-005	10	...........
	12817	256.36	-7.31510E-002	-2.11260E-006	0.00000E+000	-7.30000E-002	7.18016E-005	10	...........
	12819	256.4	-7.11635E-002	-1.97248E-006	0.00000E+000	-7.10000E-002	6.76315E-005	10	...........
	12821	256.44	-6.92050E-002	-2.33112E-006	0.00000E+000	-6.90000E-002	7.14680E-005	10	...........
	12823	256.48	-6.71872E-002	-2.06756E-006	0.00000E+000	-6.70000E-002	6.97166E-005	10	...........
	12825	256.52	-6.51970E-002	-1.95746E-006	0.00000E+000	-6.50000E-002	7.39701E-005	10	...........
	12827	256.56	-6.32226E-002	-2.12594E-006	0.00000E+000	-6.30000E-002	6.67975E-005	10	...........
	12829	256.6	-6.12691E-002	-1.83069E-006	0.00000E+000	-6.10000E-002	7.45539E-005	10	...........
	12831	256.64	-5.91708E-002	-2.12761E-006	0.00000E+000	-5.90000E-002	6.72145E-005	10	...........
	12833	256.68	-5.71614E-002	-2.17765E-006	0.00000E+000	-5.70000E-002	7.15514E-005	10	...........
	12835	256.72	-5.51577E-002	-1.73894E-006	0.00000E+000	-5.50000E-002	6.68809E-005	10	...........
	12837	256.76	-5.32054E-002	-2.04587E-006	0.00000E+000	-5.30000E-002	7.29692E-005	10	...........
	12839	256.8	-5.11445E-002	-2.12261E-006	0.00000E+000	-5.10000E-002	6.36283E-005	10	...........
	12841	256.84	-4.91492E-002	-1.97414E-006	0.00000E+000	-4.90000E-002	6.63805E-005	10	...........
	12843	256.88	-4.71513E-002	-2.06255E-006	0.00000E+000	-4.70000E-002	6.60469E-005	10	...........
	12845	256.92	-4.52099E-002	-2.21936E-006	0.00000E+000	-4.50000E-002	7.29692E-005	10	...........
	12847	256.96	-4.31910E-002	-1.95413E-006	0.00000E+000	-4.30000E-002	6.90494E-005	10	...........
	12849	257	-4.11885E-002	-2.16431E-006	0.00000E+000	-4.10000E-002	7.29692E-005	10	...........
	12851	257.04	-3.92071E-002	-2.28441E-006	0.00000E+000	-3.90000E-002	6.40453E-005	10	...........
	12853	257.08	-3.73252E-002	-1.95913E-006	0.00000E+000	-3.70000E-002	6.90494E-005	10	...........
	12855	257.12	-3.51532E-002	-2.33946E-006	0.00000E+000	-3.50000E-002	6.41287E-005	10	...........
	12857	257.16	-3.31933E-002	-1.86071E-006	0.00000E+000	-3.30000E-002	7.13012E-005	10	...........
	12859	257.2	-3.11753E-002	-2.07256E-006	0.00000E+000	-3.10000E-002	6.22938E-005	10	...........
	12861	257.24	-2.92284E-002	-2.52963E-006	0.00000E+000	-2.90000E-002	6.83821E-005	10	...........
	12863	257.28	-2.71952E-002	-2.39117E-006	0.00000E+000	-2.70000E-002	6.52963E-005	10	...........
	12865	257.32	-2.51875E-002	-1.98916E-006	0.00000E+000	-2.50000E-002	7.09676E-005	10	...........
	12867	257.36	-2.31857E-002	-2.02919E-006	0.00000E+000	-2.30000E-002	6.72979E-005	10	...........
	12869	257.4	-2.12414E-002	-2.41620E-006	0.00000E+000	-2.10000E-002	7.28024E-005	10	...........
	12871	257.44	-1.92102E-002	-2.36615E-006	0.00000E+000	-1.90000E-002	7.09676E-005	10	...........
	12873	257.48	-1.72024E-002	-2.03586E-006	0.00000E+000	-1.70000E-002	7.28858E-005	10	...........
	12875	257.52	-1.52220E-002	-2.15597E-006	0.00000E+000	-1.50000E-002	6.71311E-005	10	...........
	12877	257.56	-1.32496E-002	-2.51795E-006	0.00000E+000	-1.30000E-002	7.17182E-005	10	...........
	12879	257.6	-1.11970E-002	-2.34613E-006	0.00000E+000	-1.10000E-002	7.02170E-005	10	...........
	12881	257.64	-9.19405E-003	-2.24104E-006	0.00000E+000	-8.99999E-003	7.12178E-005	10	...........
	12883	257.68	-7.19274E-003	-1.95746E-006	0.00000E+000	-6.99998E-003	6.37117E-005	10	...........
	12885	257.72	-5.28260E-003	-2.02085E-006	0.00000E+000	-5.00000E-003	6.67141E-005	10	...........
	12887	257.76	-3.20990E-003	-2.25105E-006	0.00000E+000	-2.99999E-003	6.11262E-005	10	...........
	12889	257.8	-1.18816E-003	-2.64640E-006	0.00000E+000	-9.99987E-004	6.73813E-005	10	...........
	12891	257.84	7.40915E-004	-2.19100E-006	0.00000E+000	1.00002E-003	6.32113E-005	10	...........
	12893	257.88	2.63038E-003	-2.55465E-006	0.00000E+000	3.00001E-003	6.34615E-005	10	...........
	12895	257.92	4.68156E-003	-2.59802E-006	0.00000E+000	5.00001E-003	6.31278E-005	10	...........
	12897	257.96	6.75767E-003	-2.35448E-006	0.00000E+000	7.00001E-003	6.54631E-005	10	...........
	12899	258	8.71310E-003	-2.16431E-006	0.00000E+000	9.00000E-003	6.45457E-005	10	...........
	12901	258.04	1.06720E-002	-2.73314E-006	0.00000E+000	1.10000E-002	7.20518E-005	10	...........
	12903	258.08	1.26816E-002	-2.68977E-006	0.00000E+000	1.30000E-002	6.84655E-005	10	...........
	12905	258.12	1.47849E-002	-2.45289E-006	0.00000E+000	1.50000E-002	6.87158E-005	10	...........
	12907	258.16	1.67757E-002	-2.46290E-006	0.00000E+000	1.70000E-002	6.67975E-005	10	...........
	12909	258.2	1.85941E-002	-2.18433E-006	0.00000E+000	1.90000E-002	6.96332E-005	10	...........
	12911	258.24	2.08115E-002	-2.68977E-006	0.00000E+000	2.10000E-002	6.96332E-005	10	...........
	12913	258.28	2.27833E-002	-2.35281E-006	0.00000E+000	2.30000E-002	6.80485E-005	10	...........
	12915	258.32	2.47728E-002	-2.34280E-006	0.00000E+000	2.50000E-002	6.52963E-005	10	...........
	12917	258.36	2.65967E-002	-2.02586E-006	0.00000E+000	2.70000E-002	6.55465E-005	10	...........
	12919	258.4	2.87115E-002	-2.05255E-006	0.00000E+000	2.90000E-002	6.72145E-005	10	...........
	12921	258.44	3.07776E-002	-2.32945E-006	0.00000E+000	3.10000E-002	6.33781E-005	10	...........
	12923	258.48	3.27383E-002	-2.30276E-006	0.00000E+000	3.30000E-002	6.49627E-005	10	...........
	12925	258.52	3.46520E-002	-2.29109E-006	0.00000E+000	3.50000E-002	7.00502E-005	10	...........
	12927	258.56	3.66672E-002	-2.29609E-006	0.00000E+000	3.70000E-002	6.27942E-005	10	...........
	12929	258.6	3.87570E-002	-2.24104E-006	0.00000E+000	3.90000E-002	6.55465E-005	10	...........
	12931	258.64	4.07537E-002	-2.31110E-006	0.00000E+000	4.10000E-002	5.82906E-005	10	...........
	12933	258.68	4.25835E-002	-2.18600E-006	0.00000E+000	4.30000E-002	7.21352E-005	10	...........
	12935	258.72	4.47116E-002	-2.06923E-006	0.00000E+000	4.50000E-002	5.76234E-005	10	...........
	12937	258.76	4.67767E-002	-1.86405E-006	0.00000E+000	4.70000E-002	6.32947E-005	10	...........
	12939	258.8	4.87579E-002	-2.10926E-006	0.00000E+000	4.90000E-002	6.31278E-005	10	...........
	12941	258.84	5.06080E-002	-2.02252E-006	0.00000E+000	5.10000E-002	6.72979E-005	10	...........
	12943	258.88	5.27096E-002	-2.19434E-006	0.00000E+000	5.30000E-002	6.79651E-005	10	...........
	12945	258.92	5.47750E-002	-2.05255E-006	0.00000E+000	5.50000E-002	6.89660E-005	10	...........
	12947	258.96	5.67291E-002	-2.03753E-006	0.00000E+000	5.70000E-002	6.30444E-005	10	...........
	12949	259	5.86244E-002	-2.37783E-006	0.00000E+000	5.90000E-002	6.90494E-005	10	...........
	12951	259.04	6.06844E-002	-2.01585E-006	0.00000E+000	6.10000E-002	6.65473E-005	10	...........
	12953	259.08	6.27129E-002	-2.21602E-006	0.00000E+000	6.30000E-002	6.94664E-005	10	...........
	12955	259.12	6.46294E-002	-2.56466E-006	0.00000E+000	6.50000E-002	5.93748E-005	10	...........
	12957	259.16	6.65814E-002	-2.19934E-006	0.00000E+000	6.70000E-002	7.05506E-005	10	...........
	12959	259.2	6.87315E-002	-2.14930E-006	0.00000E+000	6.90000E-002	6.80485E-005	10	...........
	12961	259.24	7.07753E-002	-1.95746E-006	0.00000E+000	7.10000E-002	7.19684E-005	10	...........
	12963	259.28	7.27511E-002	-1.81400E-006	0.00000E+000	7.30000E-002	6.28776E-005	10	...........
	12965	259.32	7.46046E-002	-1.76730E-006	0.00000E+000	7.50000E-002	7.02170E-005	10	...........
	12967	259.36	7.66976E-002	-1.90909E-006	0.00000E+000	7.70000E-002	6.21270E-005	10	...........
	12969	259.4	7.87734E-002	-2.01418E-006	0.00000E+000	7.90000E-002	6.53797E-005	10	...........
	12971	259.44	8.07219E-002	-1.81067E-006	0.00000E+000	8.10000E-002	6.86324E-005	10	...........
	12973	259.48	8.26086E-002	-1.56045E-006	0.00000E+000	8.30000E-002	6.76315E-005	10	...........
	12975	259.52	8.46802E-002	-2.19267E-006	0.00000E+000	8.50000E-002	6.57967E-005	10	...........
	12977	259.56	8.67273E-002	-2.23937E-006	0.00000E+000	8.70000E-002	6.72979E-005	10	...........
	12979	259.6	8.86657E-002	-2.02919E-006	0.00000E+000	8.90000E-002	6.86324E-005	10	...........
	12981	259.64	9.05563E-002	-1.99083E-006	0.00000E+000	9.10000E-002	6.44623E-005	10	...........
	12983	259.68	9.26308E-002	-2.03753E-006	0.00000E+000	9.30000E-002	6.65473E-005	10	...........
	12985	259.72	9.47282E-002	-2.75983E-006	0.00000E+000	9.50000E-002	6.44623E-005	10	...........
	12987	259.76	9.67164E-002	-2.14096E-006	0.00000E+000	9.70000E-002	6.37951E-005	10	...........
	12989	259.8	9.85853E-002	-1.78731E-006	0.00000E+000	9.90000E-002	6.85490E-005	10	...........
	12991	259.84	1.00676E-001	-2.09758E-006	0.00000E+000	1.01000E-001	6.75481E-005	10	...........
	12993	259.88	1.02770E-001	-2.16765E-006	0.00000E+000	1.03000E-001	7.41369E-005	10	...........
	12995	259.92	1.04693E-001	-2.29109E-006	0.00000E+000	1.05000E-001	7.33862E-005	10	...........
	12997	259.96	1.06586E-001	-2.30443E-006	0.00000E+000	1.07000E-001	7.49709E-005	10	...........
	12999	260	1.08631E-001	-2.19600E-006	0.00000E+000	1.09000E-001	7.02170E-005	10	...........
	13000	260.02	1.09648E-001	-2.03086E-006	0.00000E+000	1.10000E-001	7.02170E-005	10	...........