File: 20191129/matning1/CVTESTKRISTALL5BOX5.DTA
EXPLAIN
TAG	CV
TITLE	LABEL	CV	Test &Identifier
DATE	LABEL	11/29/2019	Date
TIME	LABEL	13:24:37	Time
NOTES	NOTES	1	&Notes...

PSTAT	PSTAT	REF600-16093	Potentiostat
VINIT	POTEN	0.00000E+000	T	Initial &E (V)
VLIMIT1	POTEN	8.00000E-001	F	Scan Limit &1 (V)
VLIMIT2	POTEN	-5.00000E-001	F	Scan Limit &2 (V)
VFINAL	POTEN	0.00000E+000	T	Final &E (V)
SCANRATE	QUANT	4.99999E+001	&Scan Rate (mV/s)
STEPSIZE	QUANT	1.00000E+000	St&ep Size (mV)
CYCLES	IQUANT	5	C&ycles (#)
IMODE	SELECTOR	1	I/E Range &Mode
IRANGE	QUANT	1.50000E+001	&Max Current (mA)
AREA	QUANT	1.00000E+000	Electrode &Area (cm^2)
ELECTRODETYPE	SELECTOR	0	Electrode Type
STRIPPING	TOGGLE	F	Used for Stripping
POLARITY	TOGGLE	F	Signal Polarity
CONDIT	TWOPARAM	F	1.50000E+001	0.00000E+000	Conditionin&g	Time(s)	E(V)
DELAY	TWOPARAM	T	5.00000E+000	0.00000E+000	Init. De&lay	Time(s)	Stab.(mV/s)
EQDELAY	QUANT	3.00000E+000	Equil. &Time (s)
IRCOMP	SELECTOR	0	IRCom&p
PFCOR	QUANT	0.00000E+000	PF Corr. (ohm)
SAMPLINGMODE	SELECTOR	2	Sampling &Mode
OCVCURVE	TABLE	20
	Pt	T	Vf	Vm	Ach	Over
	#	s	V vs. Ref.	V	V	bits
	0	0.25	1.85621E-001	1.85621E-001	6.72671E-005	...........
	1	0.5	1.85622E-001	1.85703E-001	6.01005E-005	...........
	2	0.75	1.85630E-001	1.85667E-001	6.08089E-005	...........
	3	1	1.85645E-001	1.85717E-001	6.42255E-005	...........
	4	1.25	1.85664E-001	1.85674E-001	6.37672E-005	...........
	5	1.5	1.85681E-001	1.85740E-001	6.36422E-005	...........
	6	1.75	1.85696E-001	1.85859E-001	6.09339E-005	...........
	7	2	1.85713E-001	1.85450E-001	6.68088E-005	...........
	8	2.25	1.85722E-001	1.85960E-001	6.51005E-005	...........
	9	2.5	1.85728E-001	1.86004E-001	6.54755E-005	...........
	10	2.75	1.85751E-001	1.85342E-001	6.31838E-005	...........
	11	3	1.85769E-001	1.85708E-001	5.85172E-005	...........
	12	3.25	1.85743E-001	1.85809E-001	6.31005E-005	...........
	13	3.5	1.85710E-001	1.86079E-001	5.76006E-005	...........
	14	3.75	1.85726E-001	1.85506E-001	5.96006E-005	...........
	15	4	1.85755E-001	1.84993E-001	6.03922E-005	...........
	16	4.25	1.85701E-001	1.85578E-001	6.37255E-005	...........
	17	4.5	1.85572E-001	1.85664E-001	6.18505E-005	...........
	18	4.75	1.85481E-001	1.85739E-001	5.86422E-005	...........
	19	5	1.85497E-001	1.85607E-001	5.55173E-005	...........
EOC	QUANT	0.1854966	Open Circuit (V)
PSTATMODEL	IQUANT	4	Pstat Model
PSTATSECTION	LABEL	REF600-16093	Pstat Section
PSTATSERIALNO	LABEL	16093	Pstat Serial Number
CTRLMODE	IQUANT	1	Control Mode
IESTAB	IQUANT	2	I/E Stability
CASPEED	IQUANT	2	Control Amp Speed
CONVENTION	IQUANT	1	Current Convention
ICHRANGE	IQUANT	2	Ich Range
ICHRANGEMODE	TOGGLE	F	Ich Auto Range
ICHOFFSETENABLE	TOGGLE	F	Ich Offset Enable
ICHOFFSET	QUANT	0	Ich Offset (V)
ICHFILTER	IQUANT	2	Ich Filter
VCHRANGE	IQUANT	2	Vch Range
VCHRANGEMODE	TOGGLE	F	Vch Auto Range
VCHOFFSETENABLE	TOGGLE	F	Vch Offset Enable
VCHOFFSET	QUANT	0	Vch Offset (V)
VCHFILTER	IQUANT	2	Vch Filter
ACHRANGE	IQUANT	2	Ach Range
ACHOFFSETENABLE	TOGGLE	F	Ach Offset Enable
ACHOFFSET	QUANT	0	Ach Offset (V)
ACHFILTER	IQUANT	1	Ach Filter
IERANGELOWERLIMIT	IQUANT	1	I/E Range Lower Limit
IERANGEMODE	TOGGLE	F	I/E AutoRange
IERANGE	IQUANT	10	I/E Range
POSFEEDENABLE	TOGGLE	F	Positive Feedback IR Comp
POSFEEDRESISTANCE	QUANT	0	Positive Feedback Resistance (ohm)
ACHSELECT	IQUANT	0	Ach Select
CABLEID	IQUANT	14	Cable ID
DCCALDATE	LABEL	11/5/2019	DC Calibration Date
ACCALDATE	LABEL		AC Calibration Date
THERMOSELECT	IQUANT	1	Thermo Select
FRAMEWORKVERSION	QUANT	6.12	Framework Version
INSTRUMENTVERSION	LABEL	3.11	Instrument Version
CURVE1	TABLE
	Pt	T	Vf	Im	Vu	Sig	Ach	IERange	Over
	#	s	V vs. Ref.	A	V	V	V	#	bits
	0	0.02	1.84999E-001	-3.06343E-006	0.00000E+000	1.85500E-001	6.88826E-005	10	...........
	4	0.1	1.89055E-001	-2.14763E-006	0.00000E+000	1.89500E-001	6.44623E-005	10	...........
	8	0.18	1.92935E-001	-2.04087E-006	0.00000E+000	1.93500E-001	6.17934E-005	10	...........
	12	0.26	1.97025E-001	-2.18600E-006	0.00000E+000	1.97500E-001	6.21270E-005	10	...........
	16	0.34	2.01005E-001	-2.12594E-006	0.00000E+000	2.01500E-001	6.60469E-005	10	...........
	20	0.42	2.05140E-001	-1.44702E-006	0.00000E+000	2.05500E-001	6.62137E-005	10	...........
	24	0.5	2.08945E-001	-1.99750E-006	0.00000E+000	2.09500E-001	6.58801E-005	10	...........
	28	0.58	2.12995E-001	-1.79399E-006	0.00000E+000	2.13500E-001	6.93830E-005	10	...........
	32	0.66	2.16923E-001	-1.51541E-006	0.00000E+000	2.17500E-001	6.47125E-005	10	...........
	36	0.74	2.21106E-001	-2.02919E-006	0.00000E+000	2.21500E-001	6.44623E-005	10	...........
	40	0.82	2.24936E-001	-1.90075E-006	0.00000E+000	2.25500E-001	6.70477E-005	10	...........
	44	0.9	2.29102E-001	-1.44869E-006	0.00000E+000	2.29500E-001	6.32947E-005	10	...........
	48	0.98	2.32927E-001	-1.56545E-006	0.00000E+000	2.33500E-001	6.22104E-005	10	...........
	52	1.06	2.36983E-001	-1.65720E-006	0.00000E+000	2.37500E-001	6.57133E-005	10	...........
	56	1.14	2.40916E-001	-1.31023E-006	0.00000E+000	2.41500E-001	6.57967E-005	10	...........
	60	1.22	2.45145E-001	-1.67388E-006	0.00000E+000	2.45500E-001	6.49627E-005	10	...........
	64	1.3	2.48959E-001	-1.18346E-006	0.00000E+000	2.49500E-001	6.10428E-005	10	...........
	68	1.38	2.53074E-001	-1.36695E-006	0.00000E+000	2.53500E-001	5.67059E-005	10	...........
	72	1.46	2.56909E-001	-1.53876E-006	0.00000E+000	2.57500E-001	6.25440E-005	10	...........
	76	1.54	2.60980E-001	-1.40698E-006	0.00000E+000	2.61500E-001	6.31278E-005	10	...........
	80	1.62	2.64916E-001	-1.56379E-006	0.00000E+000	2.65500E-001	6.32947E-005	10	...........
	84	1.7	2.68932E-001	-1.61383E-006	0.00000E+000	2.69500E-001	6.36283E-005	10	...........
	88	1.78	2.72927E-001	-1.00163E-006	0.00000E+000	2.73500E-001	6.47125E-005	10	...........
	92	1.86	2.77101E-001	-5.11204E-007	0.00000E+000	2.77500E-001	5.90412E-005	10	...........
	96	1.94	2.80923E-001	-6.51326E-007	0.00000E+000	2.81500E-001	5.97918E-005	10	...........
	100	2.02	2.84979E-001	-6.31308E-007	0.00000E+000	2.85500E-001	5.94582E-005	10	...........
	104	2.1	2.88882E-001	-1.95929E-007	0.00000E+000	2.89500E-001	6.54631E-005	10	...........
	108	2.18	2.92896E-001	-6.73011E-007	0.00000E+000	2.93500E-001	6.10428E-005	10	...........
	112	2.26	2.96896E-001	-3.47728E-007	0.00000E+000	2.97500E-001	6.32113E-005	10	...........
	116	2.34	3.01029E-001	-1.41042E-008	0.00000E+000	3.01500E-001	6.16266E-005	10	...........
	120	2.42	3.04891E-001	2.37782E-007	0.00000E+000	3.05500E-001	6.21270E-005	10	...........
	124	2.5	3.08958E-001	-3.81090E-007	0.00000E+000	3.09500E-001	6.54631E-005	10	...........
	128	2.58	3.12863E-001	1.94411E-007	0.00000E+000	3.13500E-001	6.55465E-005	10	...........
	132	2.66	3.16867E-001	6.01432E-007	0.00000E+000	3.17500E-001	6.00420E-005	10	...........
	136	2.74	3.20826E-001	3.89581E-007	0.00000E+000	3.21500E-001	6.03756E-005	10	...........
	140	2.82	3.24902E-001	7.19868E-007	0.00000E+000	3.25500E-001	5.83740E-005	10	...........
	144	2.9	3.28858E-001	7.74916E-007	0.00000E+000	3.29500E-001	6.22938E-005	10	...........
	148	2.98	3.32940E-001	6.79833E-007	0.00000E+000	3.33500E-001	5.87076E-005	10	...........
	152	3.06	3.36837E-001	1.11688E-006	0.00000E+000	3.37500E-001	6.29610E-005	10	...........
	156	3.14	3.40852E-001	1.41214E-006	0.00000E+000	3.41500E-001	5.66225E-005	10	...........
	160	3.22	3.44821E-001	1.54559E-006	0.00000E+000	3.45500E-001	6.49627E-005	10	...........
	164	3.3	3.48954E-001	1.58729E-006	0.00000E+000	3.49500E-001	6.34615E-005	10	...........
	168	3.38	3.52826E-001	1.75077E-006	0.00000E+000	3.53500E-001	6.20436E-005	10	...........
	172	3.46	3.56850E-001	2.20616E-006	0.00000E+000	3.57500E-001	5.92914E-005	10	...........
	176	3.54	3.60831E-001	2.65322E-006	0.00000E+000	3.61500E-001	5.76234E-005	10	...........
	180	3.62	3.64861E-001	3.34716E-006	0.00000E+000	3.65500E-001	5.83740E-005	10	...........
	184	3.7	3.68830E-001	3.69412E-006	0.00000E+000	3.69500E-001	6.37951E-005	10	...........
	188	3.78	3.73080E-001	3.77086E-006	0.00000E+000	3.73500E-001	6.11262E-005	10	...........
	192	3.86	3.76832E-001	3.88429E-006	0.00000E+000	3.77500E-001	6.31278E-005	10	...........
	196	3.94	3.80900E-001	4.10448E-006	0.00000E+000	3.81500E-001	5.47877E-005	10	...........
	200	4.02	3.84799E-001	4.70834E-006	0.00000E+000	3.85500E-001	6.42121E-005	10	...........
	204	4.1	3.88806E-001	4.58156E-006	0.00000E+000	3.89500E-001	6.63805E-005	10	...........
	208	4.18	3.92815E-001	5.30886E-006	0.00000E+000	3.93500E-001	6.30444E-005	10	...........
	212	4.26	3.96784E-001	5.96610E-006	0.00000E+000	3.97500E-001	6.12930E-005	10	...........
	216	4.34	4.00798E-001	5.52572E-006	0.00000E+000	4.01500E-001	5.97084E-005	10	...........
	220	4.42	4.04923E-001	6.60166E-006	0.00000E+000	4.05500E-001	6.01254E-005	10	...........
	224	4.5	4.08833E-001	7.18550E-006	0.00000E+000	4.09500E-001	6.04590E-005	10	...........
	228	4.58	4.12766E-001	6.99200E-006	0.00000E+000	4.13500E-001	6.07092E-005	10	...........
	232	4.66	4.16755E-001	7.92781E-006	0.00000E+000	4.17500E-001	6.02922E-005	10	...........
	236	4.74	4.20728E-001	8.20805E-006	0.00000E+000	4.21500E-001	6.01254E-005	10	...........
	240	4.82	4.24771E-001	8.66178E-006	0.00000E+000	4.25500E-001	6.08760E-005	10	...........
	244	4.9	4.28858E-001	9.81779E-006	0.00000E+000	4.29500E-001	6.32947E-005	10	...........
	248	4.98	4.32771E-001	1.01664E-005	0.00000E+000	4.33500E-001	6.42955E-005	10	...........
	252	5.06	4.36762E-001	1.07686E-005	0.00000E+000	4.37500E-001	5.83740E-005	10	...........
	256	5.14	4.40745E-001	1.15226E-005	0.00000E+000	4.41500E-001	5.75399E-005	10	...........
	260	5.22	4.44737E-001	1.25385E-005	0.00000E+000	4.45500E-001	6.15432E-005	10	...........
	264	5.3	4.48716E-001	1.27403E-005	0.00000E+000	4.49500E-001	6.06258E-005	10	...........
	268	5.38	4.52748E-001	1.34726E-005	0.00000E+000	4.53500E-001	5.47043E-005	10	...........
	272	5.46	4.56753E-001	1.40481E-005	0.00000E+000	4.57500E-001	6.47959E-005	10	...........
	276	5.54	4.60744E-001	1.46920E-005	0.00000E+000	4.61500E-001	5.64557E-005	10	...........
	280	5.62	4.64745E-001	1.57830E-005	0.00000E+000	4.65500E-001	6.28776E-005	10	...........
	284	5.7	4.68736E-001	1.58614E-005	0.00000E+000	4.69500E-001	5.99586E-005	10	...........
	288	5.78	4.72741E-001	1.69990E-005	0.00000E+000	4.73500E-001	6.41287E-005	10	...........
	292	5.86	4.76827E-001	1.71308E-005	0.00000E+000	4.77500E-001	5.81238E-005	10	...........
	296	5.94	4.80739E-001	1.82968E-005	0.00000E+000	4.81500E-001	6.23772E-005	10	...........
	300	6.02	4.84730E-001	1.91659E-005	0.00000E+000	4.85500E-001	6.02088E-005	10	...........
	304	6.1	4.88723E-001	1.98465E-005	0.00000E+000	4.89500E-001	6.57133E-005	10	...........
	308	6.18	4.92731E-001	2.08707E-005	0.00000E+000	4.93500E-001	5.97918E-005	10	...........
	312	6.26	4.96711E-001	2.15113E-005	0.00000E+000	4.97500E-001	6.28776E-005	10	...........
	316	6.34	5.00783E-001	2.20034E-005	0.00000E+000	5.01500E-001	6.23772E-005	10	...........
	320	6.42	5.04715E-001	2.28708E-005	0.00000E+000	5.05500E-001	5.91246E-005	10	...........
	324	6.5	5.08709E-001	2.37266E-005	0.00000E+000	5.09500E-001	5.86242E-005	10	...........
	328	6.58	5.12707E-001	2.49476E-005	0.00000E+000	5.13500E-001	7.05506E-005	10	...........
	332	6.66	5.16654E-001	2.54881E-005	0.00000E+000	5.17500E-001	6.55465E-005	10	...........
	336	6.74	5.20680E-001	2.62538E-005	0.00000E+000	5.21500E-001	6.44623E-005	10	...........
	340	6.82	5.24652E-001	2.65557E-005	0.00000E+000	5.25500E-001	6.63805E-005	10	...........
	344	6.9	5.28700E-001	2.72513E-005	0.00000E+000	5.29500E-001	6.05424E-005	10	...........
	348	6.98	5.32735E-001	2.83122E-005	0.00000E+000	5.33500E-001	6.05424E-005	10	...........
	352	7.06	5.36705E-001	2.85608E-005	0.00000E+000	5.37500E-001	6.33781E-005	10	...........
	356	7.14	5.40650E-001	2.94349E-005	0.00000E+000	5.41500E-001	6.28776E-005	10	...........
	360	7.22	5.44650E-001	3.02489E-005	0.00000E+000	5.45500E-001	6.33781E-005	10	...........
	364	7.3	5.48614E-001	3.02823E-005	0.00000E+000	5.49500E-001	6.59635E-005	10	...........
	368	7.38	5.52665E-001	3.09612E-005	0.00000E+000	5.53500E-001	6.27942E-005	10	...........
	372	7.46	5.56654E-001	3.17686E-005	0.00000E+000	5.57500E-001	6.72979E-005	10	...........
	376	7.54	5.60667E-001	3.24975E-005	0.00000E+000	5.61500E-001	6.77149E-005	10	...........
	380	7.62	5.64638E-001	3.35851E-005	0.00000E+000	5.65500E-001	6.31278E-005	10	...........
	384	7.7	5.68650E-001	3.40189E-005	0.00000E+000	5.69500E-001	6.48793E-005	10	...........
	388	7.78	5.72635E-001	3.45493E-005	0.00000E+000	5.73500E-001	7.23020E-005	10	...........
	392	7.86	5.76620E-001	3.55569E-005	0.00000E+000	5.77500E-001	7.05506E-005	10	...........
	396	7.94	5.80668E-001	3.66812E-005	0.00000E+000	5.81500E-001	6.66307E-005	10	...........
	400	8.02	5.84665E-001	3.66812E-005	0.00000E+000	5.85500E-001	7.22186E-005	10	...........
	404	8.1	5.88646E-001	3.71649E-005	0.00000E+000	5.89500E-001	6.74647E-005	10	...........
	408	8.18	5.92633E-001	3.80440E-005	0.00000E+000	5.93500E-001	6.98834E-005	10	...........
	412	8.26	5.96615E-001	3.87263E-005	0.00000E+000	5.97500E-001	7.79733E-005	10	...........
	416	8.34	6.00610E-001	3.95537E-005	0.00000E+000	6.01500E-001	7.28024E-005	10	...........
	420	8.42	6.04619E-001	4.00891E-005	0.00000E+000	6.05500E-001	7.03838E-005	10	...........
	424	8.5	6.08632E-001	4.05112E-005	0.00000E+000	6.09500E-001	7.13846E-005	10	...........
	428	8.58	6.12623E-001	4.13069E-005	0.00000E+000	6.13500E-001	7.43871E-005	10	...........
	432	8.66	6.16597E-001	4.21192E-005	0.00000E+000	6.17500E-001	7.00502E-005	10	...........
	436	8.74	6.20580E-001	4.28566E-005	0.00000E+000	6.21500E-001	7.33028E-005	10	...........
	440	8.82	6.24589E-001	4.32069E-005	0.00000E+000	6.25500E-001	7.58883E-005	10	...........
	444	8.9	6.28632E-001	4.39342E-005	0.00000E+000	6.29500E-001	7.17182E-005	10	...........
	448	8.98	6.32636E-001	4.50535E-005	0.00000E+000	6.33500E-001	6.63805E-005	10	...........
	452	9.06	6.36594E-001	4.52420E-005	0.00000E+000	6.37500E-001	6.90494E-005	10	...........
	456	9.14	6.40558E-001	4.57891E-005	0.00000E+000	6.41500E-001	7.81401E-005	10	...........
	460	9.22	6.44563E-001	4.61978E-005	0.00000E+000	6.45500E-001	7.43037E-005	10	...........
	464	9.3	6.48572E-001	4.69084E-005	0.00000E+000	6.49500E-001	7.23020E-005	10	...........
	468	9.38	6.52559E-001	4.77008E-005	0.00000E+000	6.53500E-001	7.13012E-005	10	...........
	472	9.46	6.56577E-001	4.86466E-005	0.00000E+000	6.57500E-001	6.63805E-005	10	...........
	476	9.54	6.60567E-001	4.92888E-005	0.00000E+000	6.61500E-001	7.19684E-005	10	...........
	480	9.62	6.64571E-001	4.95991E-005	0.00000E+000	6.65500E-001	7.77231E-005	10	...........
	484	9.7	6.68561E-001	5.04281E-005	0.00000E+000	6.69500E-001	7.01336E-005	10	...........
	488	9.78	6.72575E-001	5.15525E-005	0.00000E+000	6.73500E-001	6.96332E-005	10	...........
	492	9.86	6.76534E-001	5.14657E-005	0.00000E+000	6.77500E-001	6.71311E-005	10	...........
	496	9.94	6.80574E-001	5.20012E-005	0.00000E+000	6.81500E-001	7.21352E-005	10	...........
	500	10.02	6.84562E-001	5.26217E-005	0.00000E+000	6.85500E-001	6.81320E-005	10	...........
	504	10.1	6.88572E-001	5.34374E-005	0.00000E+000	6.89500E-001	7.06340E-005	10	...........
	508	10.18	6.92546E-001	5.42965E-005	0.00000E+000	6.93500E-001	6.47959E-005	10	...........
	512	10.26	6.96552E-001	5.49421E-005	0.00000E+000	6.97500E-001	7.07174E-005	10	...........
	516	10.34	7.00544E-001	5.56627E-005	0.00000E+000	7.01500E-001	6.86324E-005	10	...........
	520	10.42	7.04543E-001	5.65335E-005	0.00000E+000	7.05500E-001	6.86324E-005	10	...........
	524	10.5	7.08543E-001	5.74426E-005	0.00000E+000	7.09500E-001	7.20518E-005	10	...........
	528	10.58	7.12559E-001	5.78079E-005	0.00000E+000	7.13500E-001	6.98000E-005	10	...........
	532	10.66	7.16549E-001	5.84485E-005	0.00000E+000	7.17500E-001	7.99750E-005	10	...........
	536	10.74	7.20547E-001	5.88038E-005	0.00000E+000	7.21500E-001	7.47207E-005	10	...........
	540	10.82	7.24517E-001	5.90256E-005	0.00000E+000	7.25500E-001	7.08842E-005	10	...........
	544	10.9	7.28519E-001	5.98330E-005	0.00000E+000	7.29500E-001	7.29692E-005	10	...........
	548	10.98	7.32524E-001	6.00398E-005	0.00000E+000	7.33500E-001	7.85571E-005	10	...........
	552	11.06	7.36512E-001	6.04569E-005	0.00000E+000	7.37500E-001	7.60551E-005	10	...........
	556	11.14	7.40514E-001	6.13193E-005	0.00000E+000	7.41500E-001	6.77983E-005	10	...........
	560	11.22	7.44499E-001	6.20132E-005	0.00000E+000	7.45500E-001	7.66389E-005	10	...........
	564	11.3	7.48473E-001	6.31626E-005	0.00000E+000	7.49500E-001	7.10510E-005	10	...........
	568	11.38	7.52493E-001	6.44203E-005	0.00000E+000	7.53500E-001	6.49627E-005	10	...........
	572	11.46	7.56450E-001	6.46639E-005	0.00000E+000	7.57500E-001	6.72979E-005	10	...........
	576	11.54	7.60491E-001	6.48657E-005	0.00000E+000	7.61500E-001	6.98834E-005	10	...........
	580	11.62	7.64503E-001	6.47756E-005	0.00000E+000	7.65500E-001	7.00502E-005	10	...........
	584	11.7	7.68481E-001	6.59033E-005	0.00000E+000	7.69500E-001	6.87158E-005	10	...........
	588	11.78	7.72488E-001	6.69692E-005	0.00000E+000	7.73500E-001	6.68809E-005	10	...........
	592	11.86	7.76498E-001	6.77249E-005	0.00000E+000	7.77500E-001	6.60469E-005	10	...........
	596	11.94	7.80450E-001	6.84922E-005	0.00000E+000	7.81500E-001	6.13764E-005	10	...........
	600	12.02	7.84523E-001	6.89726E-005	0.00000E+000	7.85500E-001	7.15514E-005	10	...........
	604	12.1	7.88492E-001	7.02321E-005	0.00000E+000	7.89500E-001	6.31278E-005	10	...........
	608	12.18	7.92490E-001	7.13780E-005	0.00000E+000	7.93500E-001	6.63805E-005	10	...........
	612	12.26	7.96471E-001	7.14398E-005	0.00000E+000	7.97500E-001	6.92162E-005	10	...........
	616	12.34	7.96483E-001	6.68691E-005	0.00000E+000	7.97500E-001	6.81320E-005	10	...........
	620	12.42	7.92531E-001	5.97946E-005	0.00000E+000	7.93500E-001	6.42121E-005	10	...........
	624	12.5	7.88512E-001	5.36693E-005	0.00000E+000	7.89500E-001	6.73813E-005	10	...........
	628	12.58	7.84510E-001	4.91220E-005	0.00000E+000	7.85500E-001	6.77149E-005	10	...........
	632	12.66	7.80469E-001	4.47449E-005	0.00000E+000	7.81500E-001	7.08842E-005	10	...........
	636	12.74	7.76515E-001	4.11801E-005	0.00000E+000	7.77500E-001	7.11344E-005	10	...........
	640	12.82	7.72528E-001	3.73518E-005	0.00000E+000	7.73500E-001	7.36364E-005	10	...........
	644	12.9	7.68493E-001	3.42007E-005	0.00000E+000	7.69500E-001	7.27190E-005	10	...........
	648	12.98	7.64507E-001	3.15083E-005	0.00000E+000	7.65500E-001	6.32113E-005	10	...........
	652	13.06	7.60513E-001	2.92314E-005	0.00000E+000	7.61500E-001	6.51295E-005	10	...........
	656	13.14	7.56460E-001	2.69160E-005	0.00000E+000	7.57500E-001	6.84655E-005	10	...........
	660	13.22	7.52516E-001	2.49893E-005	0.00000E+000	7.53500E-001	6.90494E-005	10	...........
	664	13.3	7.48514E-001	2.34180E-005	0.00000E+000	7.49500E-001	6.97166E-005	10	...........
	668	13.38	7.44516E-001	2.16231E-005	0.00000E+000	7.45500E-001	6.83821E-005	10	...........
	672	13.46	7.40539E-001	2.04771E-005	0.00000E+000	7.41500E-001	7.06340E-005	10	...........
	676	13.54	7.36539E-001	1.84687E-005	0.00000E+000	7.37500E-001	6.57967E-005	10	...........
	680	13.62	7.32541E-001	1.68356E-005	0.00000E+000	7.33500E-001	6.52129E-005	10	...........
	684	13.7	7.28545E-001	1.54160E-005	0.00000E+000	7.29500E-001	7.34697E-005	10	...........
	688	13.78	7.24526E-001	1.43534E-005	0.00000E+000	7.25500E-001	6.79651E-005	10	...........
	692	13.86	7.20532E-001	1.35177E-005	0.00000E+000	7.21500E-001	6.81320E-005	10	...........
	696	13.94	7.16554E-001	1.27353E-005	0.00000E+000	7.17500E-001	7.93912E-005	10	...........
	700	14.02	7.12566E-001	1.16360E-005	0.00000E+000	7.13500E-001	7.69725E-005	10	...........
	704	14.1	7.08584E-001	1.11656E-005	0.00000E+000	7.09500E-001	6.47959E-005	10	...........
	708	14.18	7.04560E-001	9.95624E-006	0.00000E+000	7.05500E-001	7.62219E-005	10	...........
	712	14.26	7.00530E-001	8.66178E-006	0.00000E+000	7.01500E-001	7.38866E-005	10	...........
	716	14.34	6.96562E-001	8.48163E-006	0.00000E+000	6.97500E-001	7.82235E-005	10	...........
	720	14.42	6.92553E-001	7.63923E-006	0.00000E+000	6.93500E-001	7.38032E-005	10	...........
	724	14.5	6.88608E-001	7.23221E-006	0.00000E+000	6.89500E-001	7.36364E-005	10	...........
	728	14.58	6.84578E-001	6.38980E-006	0.00000E+000	6.85500E-001	7.63053E-005	10	...........
	732	14.66	6.80595E-001	5.44065E-006	0.00000E+000	6.81500E-001	6.95498E-005	10	...........
	736	14.74	6.76542E-001	5.48235E-006	0.00000E+000	6.77500E-001	6.95498E-005	10	...........
	740	14.82	6.72582E-001	4.78674E-006	0.00000E+000	6.73500E-001	7.03838E-005	10	...........
	744	14.9	6.68566E-001	4.40808E-006	0.00000E+000	6.69500E-001	7.55547E-005	10	...........
	748	14.98	6.64592E-001	4.34135E-006	0.00000E+000	6.65500E-001	7.35530E-005	10	...........
	752	15.06	6.60609E-001	3.97270E-006	0.00000E+000	6.61500E-001	7.69725E-005	10	...........
	756	15.14	6.56595E-001	3.52731E-006	0.00000E+000	6.57500E-001	7.10510E-005	10	...........
	760	15.22	6.52545E-001	3.67744E-006	0.00000E+000	6.53500E-001	7.99750E-005	10	...........
	764	15.3	6.48588E-001	3.48227E-006	0.00000E+000	6.49500E-001	7.33028E-005	10	...........
	768	15.38	6.44580E-001	1.90590E-006	0.00000E+000	6.45500E-001	7.53045E-005	10	...........
	772	15.46	6.40617E-001	1.88922E-006	0.00000E+000	6.41500E-001	8.08924E-005	10	...........
	776	15.54	6.36607E-001	1.26701E-006	0.00000E+000	6.37500E-001	7.14680E-005	10	...........
	780	15.62	6.32631E-001	1.81082E-006	0.00000E+000	6.33500E-001	7.28024E-005	10	...........
	784	15.7	6.28650E-001	1.13523E-006	0.00000E+000	6.29500E-001	7.20518E-005	10	...........
	788	15.78	6.24610E-001	8.88348E-007	0.00000E+000	6.25500E-001	8.36446E-005	10	...........
	792	15.86	6.20609E-001	7.66575E-007	0.00000E+000	6.21500E-001	7.83903E-005	10	...........
	796	15.94	6.16623E-001	6.29790E-007	0.00000E+000	6.17500E-001	7.84737E-005	10	...........
	800	16.02	6.12642E-001	-1.82584E-007	0.00000E+000	6.13500E-001	7.64721E-005	10	...........
	804	16.1	6.08654E-001	-1.27536E-007	0.00000E+000	6.09500E-001	7.45539E-005	10	...........
	808	16.18	6.04607E-001	-1.06836E-006	0.00000E+000	6.05500E-001	7.53879E-005	10	...........
	812	16.26	6.00621E-001	-1.31357E-006	0.00000E+000	6.01500E-001	7.37198E-005	10	...........
	816	16.34	5.96642E-001	-1.21849E-006	0.00000E+000	5.97500E-001	8.03086E-005	10	...........
	820	16.42	5.92661E-001	-1.67055E-006	0.00000E+000	5.93500E-001	7.20518E-005	10	...........
	824	16.5	5.88656E-001	-2.68810E-006	0.00000E+000	5.89500E-001	7.38866E-005	10	...........
	828	16.58	5.84690E-001	-1.47037E-006	0.00000E+000	5.85500E-001	6.92162E-005	10	...........
	832	16.66	5.80678E-001	-2.29609E-006	0.00000E+000	5.81500E-001	6.92996E-005	10	...........
	836	16.74	5.76656E-001	-1.62050E-006	0.00000E+000	5.77500E-001	7.21352E-005	10	...........
	840	16.82	5.72652E-001	-1.50207E-006	0.00000E+000	5.73500E-001	7.45539E-005	10	...........
	844	16.9	5.68667E-001	-2.72146E-006	0.00000E+000	5.69500E-001	7.33028E-005	10	...........
	848	16.98	5.64656E-001	-2.55298E-006	0.00000E+000	5.65500E-001	7.62219E-005	10	...........
	852	17.06	5.60702E-001	-2.77484E-006	0.00000E+000	5.61500E-001	6.99668E-005	10	...........
	856	17.14	5.56688E-001	-3.02005E-006	0.00000E+000	5.57500E-001	6.61303E-005	10	...........
	860	17.22	5.52672E-001	-3.16351E-006	0.00000E+000	5.53500E-001	6.86324E-005	10	...........
	864	17.3	5.48627E-001	-3.11681E-006	0.00000E+000	5.49500E-001	6.93830E-005	10	...........
	868	17.38	5.44679E-001	-3.36702E-006	0.00000E+000	5.45500E-001	7.41369E-005	10	...........
	872	17.46	5.40667E-001	-3.27027E-006	0.00000E+000	5.41500E-001	7.35530E-005	10	...........
	876	17.54	5.36745E-001	-3.23024E-006	0.00000E+000	5.37500E-001	6.72145E-005	10	...........
	880	17.62	5.32732E-001	-3.78906E-006	0.00000E+000	5.33500E-001	7.32194E-005	10	...........
	884	17.7	5.28730E-001	-3.30030E-006	0.00000E+000	5.29500E-001	7.10510E-005	10	...........
	888	17.78	5.24666E-001	-3.83910E-006	0.00000E+000	5.25500E-001	7.26356E-005	10	...........
	892	17.86	5.20698E-001	-3.81742E-006	0.00000E+000	5.21500E-001	6.84655E-005	10	...........
	896	17.94	5.16667E-001	-4.70819E-006	0.00000E+000	5.17500E-001	6.75481E-005	10	...........
	900	18.02	5.12712E-001	-4.33120E-006	0.00000E+000	5.13500E-001	6.87992E-005	10	...........
	904	18.1	5.08751E-001	-4.46131E-006	0.00000E+000	5.09500E-001	7.17182E-005	10	...........
	908	18.18	5.04737E-001	-4.74489E-006	0.00000E+000	5.05500E-001	7.25522E-005	10	...........
	912	18.26	5.00774E-001	-4.90503E-006	0.00000E+000	5.01500E-001	7.23854E-005	10	...........
	916	18.34	4.96721E-001	-4.90336E-006	0.00000E+000	4.97500E-001	7.13846E-005	10	...........
	920	18.42	4.92716E-001	-4.58141E-006	0.00000E+000	4.93500E-001	6.82153E-005	10	...........
	924	18.5	4.88762E-001	-5.40046E-006	0.00000E+000	4.89500E-001	7.27190E-005	10	...........
	928	18.58	4.84733E-001	-5.56560E-006	0.00000E+000	4.85500E-001	6.47959E-005	10	...........
	932	18.66	4.80758E-001	-6.03935E-006	0.00000E+000	4.81500E-001	6.34615E-005	10	...........
	936	18.74	4.76821E-001	-5.58062E-006	0.00000E+000	4.77500E-001	6.44623E-005	10	...........
	940	18.82	4.72732E-001	-5.56727E-006	0.00000E+000	4.73500E-001	6.46291E-005	10	...........
	944	18.9	4.68751E-001	-6.34628E-006	0.00000E+000	4.69500E-001	6.91328E-005	10	...........
	948	18.98	4.64763E-001	-5.83250E-006	0.00000E+000	4.65500E-001	6.98834E-005	10	...........
	952	19.06	4.60752E-001	-5.10020E-006	0.00000E+000	4.61500E-001	6.48793E-005	10	...........
	956	19.14	4.56767E-001	-5.30705E-006	0.00000E+000	4.57500E-001	6.98000E-005	10	...........
	960	19.22	4.52757E-001	-5.30037E-006	0.00000E+000	4.53500E-001	6.82987E-005	10	...........
	964	19.3	4.48723E-001	-5.83417E-006	0.00000E+000	4.49500E-001	6.10428E-005	10	...........
	968	19.38	4.44757E-001	-6.31959E-006	0.00000E+000	4.45500E-001	6.65473E-005	10	...........
	972	19.46	4.40784E-001	-6.08105E-006	0.00000E+000	4.41500E-001	6.64639E-005	10	...........
	976	19.54	4.36767E-001	-6.57815E-006	0.00000E+000	4.37500E-001	6.53797E-005	10	...........
	980	19.62	4.32792E-001	-6.92179E-006	0.00000E+000	4.33500E-001	6.65473E-005	10	...........
	984	19.7	4.28838E-001	-7.22205E-006	0.00000E+000	4.29500E-001	6.79651E-005	10	...........
	988	19.78	4.24791E-001	-7.32047E-006	0.00000E+000	4.25500E-001	6.07092E-005	10	...........
	992	19.86	4.20755E-001	-7.19035E-006	0.00000E+000	4.21500E-001	6.52129E-005	10	...........
	996	19.94	4.16775E-001	-7.04856E-006	0.00000E+000	4.17500E-001	6.84655E-005	10	...........
	1000	20.02	4.12779E-001	-7.85260E-006	0.00000E+000	4.13500E-001	7.19684E-005	10	...........
	1004	20.1	4.08822E-001	-7.32380E-006	0.00000E+000	4.09500E-001	6.88826E-005	10	...........
	1008	20.18	4.04919E-001	-7.52731E-006	0.00000E+000	4.05500E-001	6.56299E-005	10	...........
	1012	20.26	4.00823E-001	-7.68912E-006	0.00000E+000	4.01500E-001	6.31278E-005	10	...........
	1016	20.34	3.96801E-001	-7.91598E-006	0.00000E+000	3.97500E-001	6.61303E-005	10	...........
	1020	20.42	3.92816E-001	-7.91265E-006	0.00000E+000	3.93500E-001	6.46291E-005	10	...........
	1024	20.5	3.88811E-001	-8.28297E-006	0.00000E+000	3.89500E-001	6.37117E-005	10	...........
	1028	20.58	3.84816E-001	-7.98604E-006	0.00000E+000	3.85500E-001	6.74647E-005	10	...........
	1032	20.66	3.80916E-001	-8.91352E-006	0.00000E+000	3.81500E-001	6.20436E-005	10	...........
	1036	20.74	3.76851E-001	-8.80342E-006	0.00000E+000	3.77500E-001	6.98000E-005	10	...........
	1040	20.82	3.73115E-001	-8.80176E-006	0.00000E+000	3.73500E-001	7.00502E-005	10	...........
	1044	20.9	3.68840E-001	-8.46313E-006	0.00000E+000	3.69500E-001	6.72145E-005	10	...........
	1048	20.98	3.64850E-001	-9.34389E-006	0.00000E+000	3.65500E-001	6.29610E-005	10	...........
	1052	21.06	3.60847E-001	-9.60078E-006	0.00000E+000	3.61500E-001	6.53797E-005	10	...........
	1056	21.14	3.56873E-001	-9.60579E-006	0.00000E+000	3.57500E-001	6.47125E-005	10	...........
	1060	21.22	3.52850E-001	-9.70754E-006	0.00000E+000	3.53500E-001	6.93830E-005	10	...........
	1064	21.3	3.48999E-001	-9.98612E-006	0.00000E+000	3.49500E-001	6.28776E-005	10	...........
	1068	21.38	3.44825E-001	-9.97277E-006	0.00000E+000	3.45500E-001	6.69643E-005	10	...........
	1072	21.46	3.40845E-001	-1.06684E-005	0.00000E+000	3.41500E-001	6.77983E-005	10	...........
	1076	21.54	3.36855E-001	-1.06500E-005	0.00000E+000	3.37500E-001	6.87992E-005	10	...........
	1080	21.62	3.32960E-001	-1.07384E-005	0.00000E+000	3.33500E-001	6.85490E-005	10	...........
	1084	21.7	3.28885E-001	-1.09369E-005	0.00000E+000	3.29500E-001	6.98000E-005	10	...........
	1088	21.78	3.24967E-001	-1.05316E-005	0.00000E+000	3.25500E-001	7.09676E-005	10	...........
	1092	21.86	3.20823E-001	-1.13240E-005	0.00000E+000	3.21500E-001	6.69643E-005	10	...........
	1096	21.94	3.16865E-001	-1.18261E-005	0.00000E+000	3.17500E-001	6.66307E-005	10	...........
	1100	22.02	3.12864E-001	-1.18511E-005	0.00000E+000	3.13500E-001	6.93830E-005	10	...........
	1104	22.1	3.08947E-001	-1.18861E-005	0.00000E+000	3.09500E-001	6.82153E-005	10	...........
	1108	22.18	3.04922E-001	-1.25000E-005	0.00000E+000	3.05500E-001	7.28858E-005	10	...........
	1112	22.26	3.01048E-001	-1.33140E-005	0.00000E+000	3.01500E-001	7.08842E-005	10	...........
	1116	22.34	2.96898E-001	-1.37294E-005	0.00000E+000	2.97500E-001	6.87992E-005	10	...........
	1120	22.42	2.92887E-001	-1.30471E-005	0.00000E+000	2.93500E-001	6.70477E-005	10	...........
	1124	22.5	2.88890E-001	-1.33107E-005	0.00000E+000	2.89500E-001	7.11344E-005	10	...........
	1128	22.58	2.84983E-001	-1.34308E-005	0.00000E+000	2.85500E-001	6.59635E-005	10	...........
	1132	22.66	2.80931E-001	-1.37010E-005	0.00000E+000	2.81500E-001	7.29692E-005	10	...........
	1136	22.74	2.77107E-001	-1.42682E-005	0.00000E+000	2.77500E-001	6.59635E-005	10	...........
	1140	22.82	2.72932E-001	-1.48003E-005	0.00000E+000	2.73500E-001	7.14680E-005	10	...........
	1144	22.9	2.68919E-001	-1.51256E-005	0.00000E+000	2.69500E-001	7.07174E-005	10	...........
	1148	22.98	2.64930E-001	-1.55143E-005	0.00000E+000	2.65500E-001	6.84655E-005	10	...........
	1152	23.06	2.60980E-001	-1.54659E-005	0.00000E+000	2.61500E-001	6.69643E-005	10	...........
	1156	23.14	2.56943E-001	-1.59563E-005	0.00000E+000	2.57500E-001	7.50543E-005	10	...........
	1160	23.22	2.53078E-001	-1.64367E-005	0.00000E+000	2.53500E-001	7.21352E-005	10	...........
	1164	23.3	2.48939E-001	-1.68404E-005	0.00000E+000	2.49500E-001	7.43871E-005	10	...........
	1168	23.38	2.45163E-001	-1.68855E-005	0.00000E+000	2.45500E-001	7.21352E-005	10	...........
	1172	23.46	2.40933E-001	-1.71073E-005	0.00000E+000	2.41500E-001	6.98000E-005	10	...........
	1176	23.54	2.36993E-001	-1.75460E-005	0.00000E+000	2.37500E-001	7.03838E-005	10	...........
	1180	23.62	2.32947E-001	-1.79664E-005	0.00000E+000	2.33500E-001	7.40535E-005	10	...........
	1184	23.7	2.29103E-001	-1.83918E-005	0.00000E+000	2.29500E-001	7.54713E-005	10	...........
	1188	23.78	2.24953E-001	-1.84935E-005	0.00000E+000	2.25500E-001	7.18016E-005	10	...........
	1192	23.86	2.21148E-001	-1.91941E-005	0.00000E+000	2.21500E-001	6.66307E-005	10	...........
	1196	23.94	2.16937E-001	-1.91641E-005	0.00000E+000	2.17500E-001	7.61385E-005	10	...........
	1200	24.02	2.13034E-001	-1.98697E-005	0.00000E+000	2.13500E-001	7.81401E-005	10	...........
	1204	24.1	2.08959E-001	-2.05720E-005	0.00000E+000	2.09500E-001	7.41369E-005	10	...........
	1208	24.18	2.05147E-001	-2.09223E-005	0.00000E+000	2.05500E-001	7.13012E-005	10	...........
	1212	24.26	2.01011E-001	-2.11659E-005	0.00000E+000	2.01500E-001	6.36283E-005	10	...........
	1216	24.34	1.97072E-001	-2.11258E-005	0.00000E+000	1.97500E-001	6.98834E-005	10	...........
	1220	24.42	1.92956E-001	-2.16479E-005	0.00000E+000	1.93500E-001	7.03838E-005	10	...........
	1224	24.5	1.89045E-001	-2.24753E-005	0.00000E+000	1.89500E-001	7.00502E-005	10	...........
	1228	24.58	1.84985E-001	-2.34178E-005	0.00000E+000	1.85500E-001	7.19684E-005	10	...........
	1232	24.66	1.81155E-001	-2.37881E-005	0.00000E+000	1.81500E-001	6.91328E-005	10	...........
	1236	24.74	1.77043E-001	-2.43420E-005	0.00000E+000	1.77500E-001	6.93830E-005	10	...........
	1240	24.82	1.73180E-001	-2.52010E-005	0.00000E+000	1.73500E-001	7.33028E-005	10	...........
	1244	24.9	1.69038E-001	-2.57899E-005	0.00000E+000	1.69500E-001	7.47207E-005	10	...........
	1248	24.98	1.65043E-001	-2.62603E-005	0.00000E+000	1.65500E-001	7.34697E-005	10	...........
	1252	25.06	1.60989E-001	-2.68441E-005	0.00000E+000	1.61500E-001	7.06340E-005	10	...........
	1256	25.14	1.57157E-001	-2.73896E-005	0.00000E+000	1.57500E-001	7.01336E-005	10	...........
	1260	25.22	1.53042E-001	-2.76915E-005	0.00000E+000	1.53500E-001	7.40535E-005	10	...........
	1264	25.3	1.49185E-001	-2.81686E-005	0.00000E+000	1.49500E-001	7.46373E-005	10	...........
	1268	25.38	1.45045E-001	-2.91495E-005	0.00000E+000	1.45500E-001	7.33028E-005	10	...........
	1272	25.46	1.41064E-001	-3.06441E-005	0.00000E+000	1.41500E-001	7.39701E-005	10	...........
	1276	25.54	1.37005E-001	-3.04589E-005	0.00000E+000	1.37500E-001	7.65555E-005	10	...........
	1280	25.62	1.33143E-001	-3.16934E-005	0.00000E+000	1.33500E-001	7.35530E-005	10	...........
	1284	25.7	1.29029E-001	-3.26325E-005	0.00000E+000	1.29500E-001	7.08842E-005	10	...........
	1288	25.78	1.25184E-001	-3.37485E-005	0.00000E+000	1.25500E-001	7.29692E-005	10	...........
	1292	25.86	1.21078E-001	-3.43874E-005	0.00000E+000	1.21500E-001	7.68057E-005	10	...........
	1296	25.94	1.17194E-001	-3.48311E-005	0.00000E+000	1.17500E-001	7.86405E-005	10	...........
	1300	26.02	1.13018E-001	-3.58403E-005	0.00000E+000	1.13500E-001	7.75563E-005	10	...........
	1304	26.1	1.09137E-001	-3.64959E-005	0.00000E+000	1.09500E-001	7.21352E-005	10	...........
	1308	26.18	1.05036E-001	-3.74384E-005	0.00000E+000	1.05500E-001	7.42203E-005	10	...........
	1312	26.26	1.01182E-001	-3.90564E-005	0.00000E+000	1.01500E-001	6.91328E-005	10	...........
	1316	26.34	9.70443E-002	-3.98121E-005	0.00000E+000	9.75000E-002	7.78065E-005	10	...........
	1320	26.42	9.31893E-002	-4.09814E-005	0.00000E+000	9.35000E-002	7.41369E-005	10	...........
	1324	26.5	8.90244E-002	-4.21124E-005	0.00000E+000	8.95000E-002	7.33862E-005	10	...........
	1328	26.58	8.51613E-002	-4.37005E-005	0.00000E+000	8.55000E-002	7.73061E-005	10	...........
	1332	26.66	8.10641E-002	-4.46179E-005	0.00000E+000	8.15000E-002	7.50543E-005	10	...........
	1336	26.74	7.71912E-002	-4.53936E-005	0.00000E+000	7.75000E-002	7.20518E-005	10	...........
	1340	26.82	7.31318E-002	-4.63678E-005	0.00000E+000	7.35000E-002	6.98834E-005	10	...........
	1344	26.9	6.91917E-002	-4.78474E-005	0.00000E+000	6.95000E-002	6.82153E-005	10	...........
	1348	26.98	6.50345E-002	-4.83195E-005	0.00000E+000	6.55000E-002	6.87158E-005	10	...........
	1352	27.06	6.11609E-002	-4.95606E-005	0.00000E+000	6.15000E-002	6.78817E-005	10	...........
	1356	27.14	5.70746E-002	-5.10852E-005	0.00000E+000	5.75000E-002	6.39619E-005	10	...........
	1360	27.22	5.31947E-002	-5.30102E-005	0.00000E+000	5.35000E-002	7.63887E-005	10	...........
	1364	27.3	4.91401E-002	-5.41596E-005	0.00000E+000	4.95000E-002	7.08842E-005	10	...........
	1368	27.38	4.51952E-002	-5.52806E-005	0.00000E+000	4.55000E-002	7.24688E-005	10	...........
	1372	27.46	4.11125E-002	-5.67802E-005	0.00000E+000	4.15000E-002	7.30526E-005	10	...........
	1376	27.54	3.71586E-002	-5.81831E-005	0.00000E+000	3.75000E-002	7.21352E-005	10	...........
	1380	27.62	3.30649E-002	-5.86018E-005	0.00000E+000	3.35000E-002	7.47207E-005	10	...........
	1384	27.7	2.91951E-002	-5.98045E-005	0.00000E+000	2.95000E-002	6.88826E-005	10	...........
	1388	27.78	2.51698E-002	-6.04300E-005	0.00000E+000	2.55000E-002	7.47207E-005	10	...........
	1392	27.86	2.11977E-002	-6.23117E-005	0.00000E+000	2.15000E-002	7.24688E-005	10	...........
	1396	27.94	1.71784E-002	-6.37362E-005	0.00000E+000	1.75000E-002	7.21352E-005	10	...........
	1400	28.02	1.31377E-002	-6.45203E-005	0.00000E+000	1.35000E-002	7.37198E-005	10	...........
	1404	28.1	9.06848E-003	-6.63919E-005	0.00000E+000	9.50001E-003	7.38866E-005	10	...........
	1408	28.18	5.17162E-003	-6.66321E-005	0.00000E+000	5.50000E-003	7.73061E-005	10	...........
	1412	28.26	1.07077E-003	-6.82902E-005	0.00000E+000	1.50001E-003	6.95498E-005	10	...........
	1416	28.34	-2.78297E-003	-6.96898E-005	0.00000E+000	-2.50000E-003	6.87158E-005	10	...........
	1420	28.42	-6.80751E-003	-7.09042E-005	0.00000E+000	-6.49999E-003	6.87158E-005	10	...........
	1424	28.5	-1.08076E-002	-7.21669E-005	0.00000E+000	-1.05000E-002	7.00502E-005	10	...........
	1428	28.58	-1.48490E-002	-7.36232E-005	0.00000E+000	-1.45000E-002	7.24688E-005	10	...........
	1432	28.66	-1.87935E-002	-7.40402E-005	0.00000E+000	-1.85000E-002	7.36364E-005	10	...........
	1436	28.74	-2.28358E-002	-7.59969E-005	0.00000E+000	-2.25000E-002	6.83821E-005	10	...........
	1440	28.82	-2.67530E-002	-7.70111E-005	0.00000E+000	-2.65000E-002	7.02170E-005	10	...........
	1444	28.9	-3.08217E-002	-7.79219E-005	0.00000E+000	-3.05000E-002	6.93830E-005	10	...........
	1448	28.98	-3.47667E-002	-7.89278E-005	0.00000E+000	-3.45000E-002	6.91328E-005	10	...........
	1452	29.06	-3.88370E-002	-7.98987E-005	0.00000E+000	-3.85000E-002	6.47125E-005	10	...........
	1456	29.14	-4.27832E-002	-8.12398E-005	0.00000E+000	-4.25000E-002	6.49627E-005	10	...........
	1460	29.22	-4.67951E-002	-8.21556E-005	0.00000E+000	-4.65000E-002	7.05506E-005	10	...........
	1464	29.3	-5.07677E-002	-8.29697E-005	0.00000E+000	-5.05000E-002	6.87158E-005	10	...........
	1468	29.38	-5.47943E-002	-8.35018E-005	0.00000E+000	-5.45000E-002	6.76315E-005	10	...........
	1472	29.46	-5.87871E-002	-8.41440E-005	0.00000E+000	-5.85000E-002	7.01336E-005	10	...........
	1476	29.54	-6.28567E-002	-8.46828E-005	0.00000E+000	-6.25000E-002	6.33781E-005	10	...........
	1480	29.62	-6.67763E-002	-8.45010E-005	0.00000E+000	-6.65000E-002	7.23854E-005	10	...........
	1484	29.7	-7.08175E-002	-8.53317E-005	0.00000E+000	-7.05000E-002	6.85490E-005	10	...........
	1488	29.78	-7.47576E-002	-8.60974E-005	0.00000E+000	-7.45000E-002	7.38032E-005	10	...........
	1492	29.86	-7.87470E-002	-8.63459E-005	0.00000E+000	-7.85000E-002	7.25522E-005	10	...........
	1496	29.94	-8.27189E-002	-8.65378E-005	0.00000E+000	-8.25000E-002	8.18932E-005	10	...........
	1500	30.02	-8.67734E-002	-8.68297E-005	0.00000E+000	-8.65000E-002	7.08842E-005	10	...........
	1504	30.1	-9.07801E-002	-8.67730E-005	0.00000E+000	-9.05000E-002	7.09676E-005	10	...........
	1508	30.18	-9.48137E-002	-8.67563E-005	0.00000E+000	-9.45000E-002	6.71311E-005	10	...........
	1512	30.26	-9.87423E-002	-8.68314E-005	0.00000E+000	-9.85000E-002	7.60551E-005	10	...........
	1516	30.34	-1.02729E-001	-8.65178E-005	0.00000E+000	-1.02500E-001	7.47207E-005	10	...........
	1520	30.42	-1.06718E-001	-8.62242E-005	0.00000E+000	-1.06500E-001	7.44705E-005	10	...........
	1524	30.5	-1.10721E-001	-8.65027E-005	0.00000E+000	-1.10500E-001	7.38866E-005	10	...........
	1528	30.58	-1.14725E-001	-8.52033E-005	0.00000E+000	-1.14500E-001	7.23020E-005	10	...........
	1532	30.66	-1.18776E-001	-8.55769E-005	0.00000E+000	-1.18500E-001	6.92996E-005	10	...........
	1536	30.74	-1.22725E-001	-8.52300E-005	0.00000E+000	-1.22500E-001	7.38866E-005	10	...........
	1540	30.82	-1.26767E-001	-8.46128E-005	0.00000E+000	-1.26500E-001	7.20518E-005	10	...........
	1544	30.9	-1.30681E-001	-8.40523E-005	0.00000E+000	-1.30500E-001	7.18016E-005	10	...........
	1548	30.98	-1.34717E-001	-8.31381E-005	0.00000E+000	-1.34500E-001	7.45539E-005	10	...........
	1552	31.06	-1.38696E-001	-8.31265E-005	0.00000E+000	-1.38500E-001	7.43037E-005	10	...........
	1556	31.14	-1.42754E-001	-8.17169E-005	0.00000E+000	-1.42500E-001	7.23020E-005	10	...........
	1560	31.22	-1.46692E-001	-8.00905E-005	0.00000E+000	-1.46500E-001	7.35530E-005	10	...........
	1564	31.3	-1.50704E-001	-7.99520E-005	0.00000E+000	-1.50500E-001	6.99668E-005	10	...........
	1568	31.38	-1.54697E-001	-7.95400E-005	0.00000E+000	-1.54500E-001	7.17182E-005	10	...........
	1572	31.46	-1.58723E-001	-7.91130E-005	0.00000E+000	-1.58500E-001	7.48875E-005	10	...........
	1576	31.54	-1.62681E-001	-7.78269E-005	0.00000E+000	-1.62500E-001	6.86324E-005	10	...........
	1580	31.62	-1.66748E-001	-7.80804E-005	0.00000E+000	-1.66500E-001	7.15514E-005	10	...........
	1584	31.7	-1.70678E-001	-7.69628E-005	0.00000E+000	-1.70500E-001	7.21352E-005	10	...........
[...]
	12584	251.7	-2.29154E-001	-1.96812E-005	0.00000E+000	-2.29000E-001	7.33862E-005	10	...........
	12586	251.74	-2.27097E-001	-1.90974E-005	0.00000E+000	-2.27000E-001	6.94664E-005	10	...........
	12588	251.78	-2.25136E-001	-1.89573E-005	0.00000E+000	-2.25000E-001	7.19684E-005	10	...........
	12590	251.82	-2.23155E-001	-1.87921E-005	0.00000E+000	-2.23000E-001	7.41369E-005	10	...........
	12592	251.86	-2.21189E-001	-1.84585E-005	0.00000E+000	-2.21000E-001	6.94664E-005	10	...........
	12594	251.9	-2.19184E-001	-1.86203E-005	0.00000E+000	-2.19000E-001	6.72145E-005	10	...........
	12596	251.94	-2.17144E-001	-1.87838E-005	0.00000E+000	-2.17000E-001	6.94664E-005	10	...........
	12598	251.98	-2.15149E-001	-1.86653E-005	0.00000E+000	-2.15000E-001	6.30444E-005	10	...........
	12600	252.02	-2.13153E-001	-1.88071E-005	0.00000E+000	-2.13000E-001	6.80485E-005	10	...........
	12602	252.06	-2.11021E-001	-1.84435E-005	0.00000E+000	-2.11000E-001	6.74647E-005	10	...........
	12604	252.1	-2.09120E-001	-1.81115E-005	0.00000E+000	-2.09000E-001	8.02252E-005	10	...........
	12606	252.14	-2.07145E-001	-1.81282E-005	0.00000E+000	-2.07000E-001	7.14680E-005	10	...........
	12608	252.18	-2.05170E-001	-1.81282E-005	0.00000E+000	-2.05000E-001	7.20518E-005	10	...........
	12610	252.22	-2.03158E-001	-1.77946E-005	0.00000E+000	-2.03000E-001	6.84655E-005	10	...........
	12612	252.26	-2.01181E-001	-1.72341E-005	0.00000E+000	-2.01000E-001	7.22186E-005	10	...........
	12614	252.3	-1.99203E-001	-1.76828E-005	0.00000E+000	-1.99000E-001	6.24606E-005	10	...........
	12616	252.34	-1.97239E-001	-1.77596E-005	0.00000E+000	-1.97000E-001	7.32194E-005	10	...........
	12618	252.38	-1.95219E-001	-1.75077E-005	0.00000E+000	-1.95000E-001	6.53797E-005	10	...........
	12620	252.42	-1.93214E-001	-1.76128E-005	0.00000E+000	-1.93000E-001	7.21352E-005	10	...........
	12622	252.46	-1.91226E-001	-1.73992E-005	0.00000E+000	-1.91000E-001	7.65555E-005	10	...........
	12624	252.5	-1.89200E-001	-1.71223E-005	0.00000E+000	-1.89000E-001	6.46291E-005	10	...........
	12626	252.54	-1.87141E-001	-1.67220E-005	0.00000E+000	-1.87000E-001	6.39619E-005	10	...........
	12628	252.58	-1.85163E-001	-1.70673E-005	0.00000E+000	-1.85000E-001	6.82153E-005	10	...........
	12630	252.62	-1.83188E-001	-1.68521E-005	0.00000E+000	-1.83000E-001	6.63805E-005	10	...........
	12632	252.66	-1.81188E-001	-1.69355E-005	0.00000E+000	-1.81000E-001	6.97166E-005	10	...........
	12634	252.7	-1.79168E-001	-1.60914E-005	0.00000E+000	-1.79000E-001	6.77149E-005	10	...........
	12636	252.74	-1.77189E-001	-1.60531E-005	0.00000E+000	-1.77000E-001	6.68809E-005	10	...........
	12638	252.78	-1.75201E-001	-1.61582E-005	0.00000E+000	-1.75000E-001	6.67141E-005	10	...........
	12640	252.82	-1.73247E-001	-1.59446E-005	0.00000E+000	-1.73000E-001	6.22938E-005	10	...........
	12642	252.86	-1.71226E-001	-1.61782E-005	0.00000E+000	-1.71000E-001	6.21270E-005	10	...........
	12644	252.9	-1.69210E-001	-1.62733E-005	0.00000E+000	-1.69000E-001	6.77149E-005	10	...........
	12646	252.94	-1.67245E-001	-1.59597E-005	0.00000E+000	-1.67000E-001	6.07092E-005	10	...........
	12648	252.98	-1.65301E-001	-1.58646E-005	0.00000E+000	-1.65000E-001	6.48793E-005	10	...........
	12650	253.02	-1.63139E-001	-1.58496E-005	0.00000E+000	-1.63000E-001	6.97166E-005	10	...........
	12652	253.06	-1.61187E-001	-1.54809E-005	0.00000E+000	-1.61000E-001	6.64639E-005	10	...........
	12654	253.1	-1.59201E-001	-1.53591E-005	0.00000E+000	-1.59000E-001	6.64639E-005	10	...........
	12656	253.14	-1.57223E-001	-1.50055E-005	0.00000E+000	-1.57000E-001	7.12178E-005	10	...........
	12658	253.18	-1.55234E-001	-1.49438E-005	0.00000E+000	-1.55000E-001	6.06258E-005	10	...........
	12660	253.22	-1.53202E-001	-1.50322E-005	0.00000E+000	-1.53000E-001	7.26356E-005	10	...........
	12662	253.26	-1.51212E-001	-1.48637E-005	0.00000E+000	-1.51000E-001	7.12178E-005	10	...........
	12664	253.3	-1.49234E-001	-1.46085E-005	0.00000E+000	-1.49000E-001	7.23020E-005	10	...........
	12666	253.34	-1.47235E-001	-1.47136E-005	0.00000E+000	-1.47000E-001	7.17182E-005	10	...........
	12668	253.38	-1.45210E-001	-1.49438E-005	0.00000E+000	-1.45000E-001	6.73813E-005	10	...........
	12670	253.42	-1.43228E-001	-1.47736E-005	0.00000E+000	-1.43000E-001	6.45457E-005	10	...........
	12672	253.46	-1.41274E-001	-1.47920E-005	0.00000E+000	-1.41000E-001	7.68057E-005	10	...........
	12674	253.5	-1.39154E-001	-1.46168E-005	0.00000E+000	-1.39000E-001	6.40453E-005	10	...........
	12676	253.54	-1.37180E-001	-1.39262E-005	0.00000E+000	-1.37000E-001	6.56299E-005	10	...........
	12678	253.58	-1.35216E-001	-1.43566E-005	0.00000E+000	-1.35000E-001	6.27108E-005	10	...........
	12680	253.62	-1.33242E-001	-1.37377E-005	0.00000E+000	-1.33000E-001	6.37951E-005	10	...........
	12682	253.66	-1.31211E-001	-1.41848E-005	0.00000E+000	-1.31000E-001	6.01254E-005	10	...........
	12684	253.7	-1.29201E-001	-1.37327E-005	0.00000E+000	-1.29000E-001	6.27942E-005	10	...........
	12686	253.74	-1.27237E-001	-1.38745E-005	0.00000E+000	-1.27000E-001	5.50379E-005	10	...........
	12688	253.78	-1.25264E-001	-1.41364E-005	0.00000E+000	-1.25000E-001	6.02922E-005	10	...........
	12690	253.82	-1.23283E-001	-1.41898E-005	0.00000E+000	-1.23000E-001	5.84574E-005	10	...........
	12692	253.86	-1.21215E-001	-1.36193E-005	0.00000E+000	-1.21000E-001	5.93748E-005	10	...........
	12694	253.9	-1.19258E-001	-1.36143E-005	0.00000E+000	-1.19000E-001	5.95416E-005	10	...........
	12696	253.94	-1.17277E-001	-1.34825E-005	0.00000E+000	-1.17000E-001	6.27108E-005	10	...........
	12698	253.98	-1.15259E-001	-1.32306E-005	0.00000E+000	-1.15000E-001	6.66307E-005	10	...........
	12700	254.02	-1.13226E-001	-1.33174E-005	0.00000E+000	-1.13000E-001	7.06340E-005	10	...........
	12702	254.06	-1.11236E-001	-1.30588E-005	0.00000E+000	-1.11000E-001	5.82072E-005	10	...........
	12704	254.1	-1.09266E-001	-1.28703E-005	0.00000E+000	-1.09000E-001	6.28776E-005	10	...........
	12706	254.14	-1.07225E-001	-1.27068E-005	0.00000E+000	-1.07000E-001	6.27942E-005	10	...........
	12708	254.18	-1.05211E-001	-1.27068E-005	0.00000E+000	-1.05000E-001	6.72145E-005	10	...........
	12710	254.22	-1.03240E-001	-1.22181E-005	0.00000E+000	-1.03000E-001	6.07092E-005	10	...........
	12712	254.26	-1.01326E-001	-1.27302E-005	0.00000E+000	-1.01000E-001	6.67975E-005	10	...........
	12714	254.3	-9.92889E-002	-1.25333E-005	0.00000E+000	-9.90000E-002	6.55465E-005	10	...........
	12716	254.34	-9.72326E-002	-1.25283E-005	0.00000E+000	-9.70000E-002	6.49627E-005	10	...........
	12718	254.38	-9.52819E-002	-1.22047E-005	0.00000E+000	-9.50000E-002	6.75481E-005	10	...........
	12720	254.42	-9.33014E-002	-1.17677E-005	0.00000E+000	-9.30000E-002	6.66307E-005	10	...........
	12722	254.46	-9.13241E-002	-1.21747E-005	0.00000E+000	-9.10000E-002	6.52129E-005	10	...........
	12724	254.5	-8.92481E-002	-1.17093E-005	0.00000E+000	-8.90000E-002	6.51295E-005	10	...........
	12726	254.54	-8.72765E-002	-1.24099E-005	0.00000E+000	-8.70000E-002	6.38785E-005	10	...........
	12728	254.58	-8.52576E-002	-1.16893E-005	0.00000E+000	-8.50000E-002	6.82153E-005	10	...........
	12730	254.62	-8.32661E-002	-1.18261E-005	0.00000E+000	-8.30000E-002	6.74647E-005	10	...........
	12732	254.66	-8.12183E-002	-1.19728E-005	0.00000E+000	-8.10000E-002	6.74647E-005	10	...........
	12734	254.7	-7.92466E-002	-1.15225E-005	0.00000E+000	-7.90000E-002	6.26274E-005	10	...........
	12736	254.74	-7.72534E-002	-1.14874E-005	0.00000E+000	-7.70000E-002	6.79651E-005	10	...........
	12738	254.78	-7.52972E-002	-1.13573E-005	0.00000E+000	-7.50000E-002	6.38785E-005	10	...........
	12740	254.82	-7.32246E-002	-1.16976E-005	0.00000E+000	-7.30000E-002	6.85490E-005	10	...........
	12742	254.86	-7.12687E-002	-1.15675E-005	0.00000E+000	-7.10000E-002	6.58801E-005	10	...........
	12744	254.9	-6.93397E-002	-1.15975E-005	0.00000E+000	-6.90000E-002	6.70477E-005	10	...........
	12746	254.94	-6.73207E-002	-1.05266E-005	0.00000E+000	-6.70000E-002	6.54631E-005	10	...........
	12748	254.98	-6.52958E-002	-1.09403E-005	0.00000E+000	-6.50000E-002	6.72145E-005	10	...........
	12750	255.02	-6.33366E-002	-1.09086E-005	0.00000E+000	-6.30000E-002	6.00420E-005	10	...........
	12752	255.06	-6.13426E-002	-1.04982E-005	0.00000E+000	-6.10000E-002	6.27942E-005	10	...........
	12754	255.1	-5.93015E-002	-1.05366E-005	0.00000E+000	-5.90000E-002	6.16266E-005	10	...........
	12756	255.14	-5.72267E-002	-1.05349E-005	0.00000E+000	-5.70000E-002	6.21270E-005	10	...........
	12758	255.18	-5.52885E-002	-1.02347E-005	0.00000E+000	-5.50000E-002	6.35449E-005	10	...........
	12760	255.22	-5.32637E-002	-1.01396E-005	0.00000E+000	-5.30000E-002	6.71311E-005	10	...........
	12762	255.26	-5.12853E-002	-1.02497E-005	0.00000E+000	-5.10000E-002	6.71311E-005	10	...........
	12764	255.3	-4.92267E-002	-1.03765E-005	0.00000E+000	-4.90000E-002	6.63805E-005	10	...........
	12766	255.34	-4.72826E-002	-9.96777E-006	0.00000E+000	-4.70000E-002	6.69643E-005	10	...........
	12768	255.38	-4.53348E-002	-9.77927E-006	0.00000E+000	-4.50000E-002	6.81320E-005	10	...........
	12770	255.42	-4.33183E-002	-9.65416E-006	0.00000E+000	-4.30000E-002	6.73813E-005	10	...........
	12772	255.46	-4.12627E-002	-9.57910E-006	0.00000E+000	-4.10000E-002	6.75481E-005	10	...........
	12774	255.5	-3.93216E-002	-9.73590E-006	0.00000E+000	-3.90000E-002	6.71311E-005	10	...........
	12776	255.54	-3.73641E-002	-9.84933E-006	0.00000E+000	-3.70000E-002	6.76315E-005	10	...........
	12778	255.58	-3.53046E-002	-9.82765E-006	0.00000E+000	-3.50000E-002	6.42121E-005	10	...........
	12780	255.62	-3.32705E-002	-9.13705E-006	0.00000E+000	-3.30000E-002	6.08760E-005	10	...........
	12782	255.66	-3.12730E-002	-9.09534E-006	0.00000E+000	-3.10000E-002	6.81320E-005	10	...........
	12784	255.7	-2.92746E-002	-9.19376E-006	0.00000E+000	-2.90000E-002	6.45457E-005	10	...........
	12786	255.74	-2.73013E-002	-8.67998E-006	0.00000E+000	-2.70000E-002	6.91328E-005	10	...........
	12788	255.78	-2.52277E-002	-8.66997E-006	0.00000E+000	-2.50000E-002	6.64639E-005	10	...........
	12790	255.82	-2.32996E-002	-8.40141E-006	0.00000E+000	-2.30000E-002	6.90494E-005	10	...........
	12792	255.86	-2.13273E-002	-8.31967E-006	0.00000E+000	-2.10000E-002	6.67141E-005	10	...........
	12794	255.9	-1.93372E-002	-8.47814E-006	0.00000E+000	-1.90000E-002	6.78817E-005	10	...........
	12796	255.94	-1.72649E-002	-8.86181E-006	0.00000E+000	-1.70000E-002	6.55465E-005	10	...........
	12798	255.98	-1.53261E-002	-8.49649E-006	0.00000E+000	-1.50000E-002	6.92996E-005	10	...........
	12800	256.02	-1.33663E-002	-8.71835E-006	0.00000E+000	-1.30000E-002	6.84655E-005	10	...........
	12802	256.06	-1.13159E-002	-8.24294E-006	0.00000E+000	-1.10000E-002	6.33781E-005	10	...........
	12804	256.1	-9.23066E-003	-8.68499E-006	0.00000E+000	-8.99999E-003	6.55465E-005	10	...........
	12806	256.14	-7.31659E-003	-7.89763E-006	0.00000E+000	-6.99998E-003	6.50461E-005	10	...........
	12808	256.18	-5.35807E-003	-7.77086E-006	0.00000E+000	-5.00000E-003	5.97084E-005	10	...........
	12810	256.22	-3.34318E-003	-7.95101E-006	0.00000E+000	-2.99999E-003	6.21270E-005	10	...........
	12812	256.26	-1.24463E-003	-7.79755E-006	0.00000E+000	-9.99987E-004	6.12930E-005	10	...........
	12814	256.3	6.09308E-004	-8.10948E-006	0.00000E+000	1.00002E-003	7.13012E-005	10	...........
	12816	256.34	2.58884E-003	-7.60571E-006	0.00000E+000	3.00001E-003	6.74647E-005	10	...........
	12818	256.38	4.57605E-003	-8.05444E-006	0.00000E+000	5.00001E-003	7.12178E-005	10	...........
	12820	256.42	6.69579E-003	-8.09948E-006	0.00000E+000	7.00001E-003	6.84655E-005	10	...........
	12822	256.46	8.59593E-003	-7.95268E-006	0.00000E+000	9.00000E-003	7.34697E-005	10	...........
	12824	256.5	1.05798E-002	-7.76085E-006	0.00000E+000	1.10000E-002	7.22186E-005	10	...........
	12826	256.54	1.25589E-002	-7.47560E-006	0.00000E+000	1.30000E-002	7.93912E-005	10	...........
	12828	256.58	1.47736E-002	-7.73249E-006	0.00000E+000	1.50000E-002	6.81320E-005	10	...........
	12830	256.62	1.66862E-002	-7.31880E-006	0.00000E+000	1.70000E-002	6.57133E-005	10	...........
	12832	256.66	1.86575E-002	-7.67077E-006	0.00000E+000	1.90000E-002	6.53797E-005	10	...........
	12834	256.7	2.06469E-002	-7.21037E-006	0.00000E+000	2.10000E-002	7.00502E-005	10	...........
	12836	256.74	2.27569E-002	-7.35883E-006	0.00000E+000	2.30000E-002	6.32947E-005	10	...........
	12838	256.78	2.46354E-002	-7.26709E-006	0.00000E+000	2.50000E-002	6.67141E-005	10	...........
	12840	256.82	2.65768E-002	-6.89343E-006	0.00000E+000	2.70000E-002	6.82987E-005	10	...........
	12842	256.86	2.85929E-002	-7.18368E-006	0.00000E+000	2.90000E-002	7.27190E-005	10	...........
	12844	256.9	3.07174E-002	-7.07525E-006	0.00000E+000	3.10000E-002	6.92996E-005	10	...........
	12846	256.94	3.25978E-002	-7.00519E-006	0.00000E+000	3.30000E-002	7.12178E-005	10	...........
	12848	256.98	3.45793E-002	-6.86173E-006	0.00000E+000	3.50000E-002	6.90494E-005	10	...........
	12850	257.02	3.65686E-002	-6.95348E-006	0.00000E+000	3.70000E-002	7.69725E-005	10	...........
	12852	257.06	3.86625E-002	-6.77332E-006	0.00000E+000	3.90000E-002	7.35530E-005	10	...........
	12854	257.1	4.06104E-002	-6.83171E-006	0.00000E+000	4.10000E-002	7.53045E-005	10	...........
	12856	257.14	4.26191E-002	-6.46472E-006	0.00000E+000	4.30000E-002	7.34697E-005	10	...........
	12858	257.18	4.45954E-002	-7.04189E-006	0.00000E+000	4.50000E-002	7.63053E-005	10	...........
	12860	257.22	4.67576E-002	-6.46972E-006	0.00000E+000	4.70000E-002	7.25522E-005	10	...........
	12862	257.26	4.86066E-002	-6.76498E-006	0.00000E+000	4.90000E-002	7.41369E-005	10	...........
	12864	257.3	5.06144E-002	-6.51810E-006	0.00000E+000	5.10000E-002	7.18850E-005	10	...........
	12866	257.34	5.25877E-002	-6.56814E-006	0.00000E+000	5.30000E-002	7.77231E-005	10	...........
	12868	257.38	5.47262E-002	-6.81502E-006	0.00000E+000	5.50000E-002	6.92996E-005	10	...........
	12870	257.42	5.65921E-002	-6.33961E-006	0.00000E+000	5.70000E-002	7.50543E-005	10	...........
	12872	257.46	5.85651E-002	-6.01099E-006	0.00000E+000	5.90000E-002	7.53045E-005	10	...........
	12874	257.5	6.05848E-002	-5.71907E-006	0.00000E+000	6.10000E-002	7.62219E-005	10	...........
	12876	257.54	6.26357E-002	-5.92091E-006	0.00000E+000	6.30000E-002	6.92162E-005	10	...........
	12878	257.58	6.45799E-002	-5.76745E-006	0.00000E+000	6.50000E-002	6.55465E-005	10	...........
	12880	257.62	6.65982E-002	-6.07605E-006	0.00000E+000	6.70000E-002	7.03838E-005	10	...........
	12882	257.66	6.85989E-002	-5.66736E-006	0.00000E+000	6.90000E-002	7.28858E-005	10	...........
	12884	257.7	7.07523E-002	-5.36376E-006	0.00000E+000	7.10000E-002	6.99668E-005	10	...........
	12886	257.74	7.25954E-002	-5.08685E-006	0.00000E+000	7.30000E-002	7.35530E-005	10	...........
	12888	257.78	7.45928E-002	-5.39212E-006	0.00000E+000	7.50000E-002	7.17182E-005	10	...........
	12890	257.82	7.65856E-002	-5.65235E-006	0.00000E+000	7.70000E-002	7.40535E-005	10	...........
	12892	257.86	7.87285E-002	-5.56394E-006	0.00000E+000	7.90000E-002	7.41369E-005	10	...........
	12894	257.9	8.05759E-002	-5.41714E-006	0.00000E+000	8.10000E-002	7.51377E-005	10	...........
	12896	257.94	8.25556E-002	-5.38878E-006	0.00000E+000	8.30000E-002	6.68809E-005	10	...........
	12898	257.98	8.45570E-002	-5.37711E-006	0.00000E+000	8.50000E-002	7.17182E-005	10	...........
	12900	258.02	8.66413E-002	-4.98009E-006	0.00000E+000	8.70000E-002	6.68809E-005	10	...........
	12902	258.06	8.85699E-002	-4.74322E-006	0.00000E+000	8.90000E-002	7.18016E-005	10	...........
	12904	258.1	9.05285E-002	-4.60477E-006	0.00000E+000	9.10000E-002	6.89660E-005	10	...........
	12906	258.14	9.25606E-002	-4.69318E-006	0.00000E+000	9.30000E-002	7.42203E-005	10	...........
	12908	258.18	9.46273E-002	-4.65147E-006	0.00000E+000	9.50000E-002	6.83821E-005	10	...........
	12910	258.22	9.65694E-002	-4.67983E-006	0.00000E+000	9.70000E-002	7.28858E-005	10	...........
	12912	258.26	9.85726E-002	-4.30284E-006	0.00000E+000	9.90000E-002	6.88826E-005	10	...........
	12914	258.3	1.00566E-001	-4.14103E-006	0.00000E+000	1.01000E-001	8.01418E-005	10	...........
	12916	258.34	1.02715E-001	-4.50134E-006	0.00000E+000	1.03000E-001	6.73813E-005	10	...........
	12918	258.38	1.04541E-001	-4.36956E-006	0.00000E+000	1.05000E-001	7.82235E-005	10	...........
	12920	258.42	1.06531E-001	-4.57808E-006	0.00000E+000	1.07000E-001	7.34697E-005	10	...........
	12922	258.46	1.08520E-001	-4.16105E-006	0.00000E+000	1.09000E-001	7.27190E-005	10	...........
	12924	258.5	1.10591E-001	-3.82576E-006	0.00000E+000	1.11000E-001	7.20518E-005	10	...........
	12926	258.54	1.12565E-001	-3.30197E-006	0.00000E+000	1.13000E-001	8.01418E-005	10	...........
	12928	258.58	1.14533E-001	-3.85912E-006	0.00000E+000	1.15000E-001	7.05506E-005	10	...........
	12930	258.62	1.16542E-001	-3.96087E-006	0.00000E+000	1.17000E-001	7.34697E-005	10	...........
	12932	258.66	1.18717E-001	-3.88247E-006	0.00000E+000	1.19000E-001	6.74647E-005	10	...........
	12934	258.7	1.20549E-001	-3.89248E-006	0.00000E+000	1.21000E-001	7.37198E-005	10	...........
	12936	258.74	1.22534E-001	-3.68230E-006	0.00000E+000	1.23000E-001	6.74647E-005	10	...........
	12938	258.78	1.24537E-001	-3.80407E-006	0.00000E+000	1.25000E-001	7.43871E-005	10	...........
	12940	258.82	1.26690E-001	-3.58721E-006	0.00000E+000	1.27000E-001	6.60469E-005	10	...........
	12942	258.86	1.28515E-001	-3.47045E-006	0.00000E+000	1.29000E-001	7.67223E-005	10	...........
	12944	258.9	1.30512E-001	-3.43708E-006	0.00000E+000	1.31000E-001	6.52963E-005	10	...........
	12946	258.94	1.32513E-001	-3.54718E-006	0.00000E+000	1.33000E-001	7.09676E-005	10	...........
	12948	258.98	1.34599E-001	-3.18853E-006	0.00000E+000	1.35000E-001	6.78817E-005	10	...........
	12950	259.02	1.36533E-001	-3.80407E-006	0.00000E+000	1.37000E-001	7.58883E-005	10	...........
	12952	259.06	1.38511E-001	-4.62645E-006	0.00000E+000	1.39000E-001	7.45539E-005	10	...........
	12954	259.1	1.40479E-001	-4.40459E-006	0.00000E+000	1.41000E-001	7.32194E-005	10	...........
	12956	259.14	1.42748E-001	-1.24351E-006	0.00000E+000	1.43000E-001	6.67141E-005	10	...........
	12958	259.18	1.44531E-001	-8.96189E-006	0.00000E+000	1.45000E-001	7.48875E-005	10	...........
	12960	259.22	1.46508E-001	5.01694E-006	0.00000E+000	1.47000E-001	7.63053E-005	10	...........
	12962	259.26	1.48519E-001	-2.58968E-006	0.00000E+000	1.49000E-001	7.33862E-005	10	...........
	12964	259.3	1.50639E-001	-2.35114E-006	0.00000E+000	1.51000E-001	6.67141E-005	10	...........
	12966	259.34	1.52505E-001	-2.11427E-006	0.00000E+000	1.53000E-001	7.35530E-005	10	...........
	12968	259.38	1.54518E-001	-2.62638E-006	0.00000E+000	1.55000E-001	7.31360E-005	10	...........
	12970	259.42	1.56495E-001	-2.46457E-006	0.00000E+000	1.57000E-001	7.71393E-005	10	...........
	12972	259.46	1.58554E-001	-2.73314E-006	0.00000E+000	1.59000E-001	7.60551E-005	10	...........
	12974	259.5	1.60507E-001	-2.88160E-006	0.00000E+000	1.61000E-001	7.24688E-005	10	...........
	12976	259.54	1.62498E-001	-2.75649E-006	0.00000E+000	1.63000E-001	6.69643E-005	10	...........
	12978	259.58	1.64479E-001	-2.51295E-006	0.00000E+000	1.65000E-001	6.57133E-005	10	...........
	12980	259.62	1.66506E-001	-2.11260E-006	0.00000E+000	1.67000E-001	7.18850E-005	10	...........
	12982	259.66	1.68517E-001	-2.43455E-006	0.00000E+000	1.69000E-001	7.33028E-005	10	...........
	12984	259.7	1.70502E-001	-1.69557E-006	0.00000E+000	1.71000E-001	6.52963E-005	10	...........
	12986	259.74	1.72497E-001	-1.88073E-006	0.00000E+000	1.73000E-001	7.89741E-005	10	...........
	12988	259.78	1.74699E-001	-1.73894E-006	0.00000E+000	1.75000E-001	6.50461E-005	10	...........
	12990	259.82	1.76530E-001	-1.97581E-006	0.00000E+000	1.77000E-001	7.23854E-005	10	...........
	12992	259.86	1.78503E-001	-1.68056E-006	0.00000E+000	1.79000E-001	7.09676E-005	10	...........
	12994	259.9	1.80469E-001	-2.13262E-006	0.00000E+000	1.81000E-001	7.53879E-005	10	...........
	12996	259.94	1.82539E-001	-1.86738E-006	0.00000E+000	1.83000E-001	6.84655E-005	10	...........
	12998	259.98	1.84486E-001	-1.57213E-006	0.00000E+000	1.85000E-001	7.18016E-005	10	...........