File: 20191129/matning1/CVTESTKRISTALL4BOX5.DTA
EXPLAIN
TAG	CV
TITLE	LABEL	CV	Test &Identifier
DATE	LABEL	11/29/2019	Date
TIME	LABEL	10:53:55	Time
NOTES	NOTES	1	&Notes...

PSTAT	PSTAT	REF600-16093	Potentiostat
VINIT	POTEN	0.00000E+000	T	Initial &E (V)
VLIMIT1	POTEN	8.00000E-001	F	Scan Limit &1 (V)
VLIMIT2	POTEN	-6.00000E-001	F	Scan Limit &2 (V)
VFINAL	POTEN	0.00000E+000	T	Final &E (V)
SCANRATE	QUANT	4.99999E+001	&Scan Rate (mV/s)
STEPSIZE	QUANT	1.00000E+000	St&ep Size (mV)
CYCLES	IQUANT	5	C&ycles (#)
IMODE	SELECTOR	1	I/E Range &Mode
IRANGE	QUANT	1.00000E+000	&Max Current (mA)
AREA	QUANT	1.00000E+000	Electrode &Area (cm^2)
ELECTRODETYPE	SELECTOR	0	Electrode Type
STRIPPING	TOGGLE	F	Used for Stripping
POLARITY	TOGGLE	F	Signal Polarity
CONDIT	TWOPARAM	F	1.50000E+001	0.00000E+000	Conditionin&g	Time(s)	E(V)
DELAY	TWOPARAM	T	5.00000E+000	0.00000E+000	Init. De&lay	Time(s)	Stab.(mV/s)
EQDELAY	QUANT	3.00000E+000	Equil. &Time (s)
IRCOMP	SELECTOR	0	IRCom&p
PFCOR	QUANT	0.00000E+000	PF Corr. (ohm)
SAMPLINGMODE	SELECTOR	2	Sampling &Mode
OCVCURVE	TABLE	20
	Pt	T	Vf	Vm	Ach	Over
	#	s	V vs. Ref.	V	V	bits
	0	0.25	1.17940E-001	1.17940E-001	7.26420E-005	...........
	1	0.5	1.17997E-001	1.20927E-001	8.53918E-005	...........
	2	0.75	1.18184E-001	1.15245E-001	8.69751E-005	...........
	3	1	1.18660E-001	1.35151E-001	9.08501E-005	...........
	4	1.25	1.19788E-001	1.12976E-001	9.28917E-005	...........
	5	1.5	1.21448E-001	1.32981E-001	8.35585E-005	...........
	6	1.75	1.23147E-001	1.31854E-001	8.59751E-005	...........
	7	2	1.25222E-001	1.34467E-001	8.48918E-005	...........
	8	2.25	1.27714E-001	1.17883E-001	8.68085E-005	...........
	9	2.5	1.29289E-001	1.37069E-001	8.77668E-005	...........
	10	2.75	1.29157E-001	1.13208E-001	8.45168E-005	...........
	11	3	1.27897E-001	1.32727E-001	8.31419E-005	...........
	12	3.25	1.26591E-001	1.31587E-001	8.78085E-005	...........
	13	3.5	1.26572E-001	1.35806E-001	7.43087E-005	...........
	14	3.75	1.28075E-001	1.18328E-001	8.71835E-005	...........
	15	4	1.29381E-001	1.32484E-001	6.86838E-005	...........
	16	4.25	1.29035E-001	1.15466E-001	8.66418E-005	...........
	17	4.5	1.27421E-001	1.32134E-001	7.36837E-005	...........
	18	4.75	1.25609E-001	1.12030E-001	9.28084E-005	...........
	19	5	1.24175E-001	1.33945E-001	8.03086E-005	...........
EOC	QUANT	0.1241748	Open Circuit (V)
PSTATMODEL	IQUANT	4	Pstat Model
PSTATSECTION	LABEL	REF600-16093	Pstat Section
PSTATSERIALNO	LABEL	16093	Pstat Serial Number
CTRLMODE	IQUANT	1	Control Mode
IESTAB	IQUANT	2	I/E Stability
CASPEED	IQUANT	2	Control Amp Speed
CONVENTION	IQUANT	1	Current Convention
ICHRANGE	IQUANT	2	Ich Range
ICHRANGEMODE	TOGGLE	F	Ich Auto Range
ICHOFFSETENABLE	TOGGLE	F	Ich Offset Enable
ICHOFFSET	QUANT	0	Ich Offset (V)
ICHFILTER	IQUANT	2	Ich Filter
VCHRANGE	IQUANT	2	Vch Range
VCHRANGEMODE	TOGGLE	F	Vch Auto Range
VCHOFFSETENABLE	TOGGLE	F	Vch Offset Enable
VCHOFFSET	QUANT	0	Vch Offset (V)
VCHFILTER	IQUANT	2	Vch Filter
ACHRANGE	IQUANT	2	Ach Range
ACHOFFSETENABLE	TOGGLE	F	Ach Offset Enable
ACHOFFSET	QUANT	0	Ach Offset (V)
ACHFILTER	IQUANT	1	Ach Filter
IERANGELOWERLIMIT	IQUANT	1	I/E Range Lower Limit
IERANGEMODE	TOGGLE	F	I/E AutoRange
IERANGE	IQUANT	9	I/E Range
POSFEEDENABLE	TOGGLE	F	Positive Feedback IR Comp
POSFEEDRESISTANCE	QUANT	0	Positive Feedback Resistance (ohm)
ACHSELECT	IQUANT	0	Ach Select
CABLEID	IQUANT	14	Cable ID
DCCALDATE	LABEL	11/5/2019	DC Calibration Date
ACCALDATE	LABEL		AC Calibration Date
THERMOSELECT	IQUANT	1	Thermo Select
FRAMEWORKVERSION	QUANT	6.12	Framework Version
INSTRUMENTVERSION	LABEL	3.11	Instrument Version
CURVE1	TABLE
	Pt	T	Vf	Im	Vu	Sig	Ach	IERange	Over
	#	s	V vs. Ref.	A	V	V	V	#	bits
	0	0.02	1.23784E-001	-4.00541E-007	0.00000E+000	1.24150E-001	7.91409E-005	9	...........
	4	0.1	1.27978E-001	-5.52406E-008	0.00000E+000	1.28150E-001	6.33781E-005	9	...........
	8	0.18	1.31744E-001	-2.14880E-007	0.00000E+000	1.32150E-001	8.32276E-005	9	...........
	12	0.26	1.35800E-001	-5.37393E-008	0.00000E+000	1.36150E-001	8.47289E-005	9	...........
	16	0.34	1.39718E-001	-4.57257E-007	0.00000E+000	1.40150E-001	7.89741E-005	9	...........
	20	0.42	1.43906E-001	-2.45740E-007	0.00000E+000	1.44150E-001	7.46373E-005	9	...........
	24	0.5	1.47833E-001	2.12492E-007	0.00000E+000	1.48150E-001	7.13846E-005	9	...........
	28	0.58	1.51861E-001	-1.09454E-007	0.00000E+000	1.52150E-001	8.57297E-005	9	...........
	32	0.66	1.55741E-001	4.25678E-007	0.00000E+000	1.56150E-001	8.23936E-005	9	...........
	36	0.74	1.59807E-001	-4.43978E-008	0.00000E+000	1.60150E-001	8.06422E-005	9	...........
	40	0.82	1.63745E-001	-1.86188E-007	0.00000E+000	1.64150E-001	8.32276E-005	9	...........
	44	0.9	1.68000E-001	3.31596E-007	0.00000E+000	1.68150E-001	6.02088E-005	9	...........
	48	0.98	1.71721E-001	-3.93935E-008	0.00000E+000	1.72150E-001	8.12260E-005	9	...........
	52	1.06	1.75904E-001	-8.84362E-008	0.00000E+000	1.76150E-001	7.62219E-005	9	...........
	56	1.14	1.79714E-001	3.78137E-007	0.00000E+000	1.80150E-001	7.48875E-005	9	...........
	60	1.22	1.83834E-001	1.14180E-009	0.00000E+000	1.84150E-001	8.20600E-005	9	...........
	64	1.3	1.87710E-001	9.31558E-009	0.00000E+000	1.88150E-001	8.15596E-005	9	...........
	68	1.38	1.91889E-001	4.75722E-007	0.00000E+000	1.92150E-001	6.10428E-005	9	...........
	72	1.46	1.95695E-001	-7.53241E-009	0.00000E+000	1.96150E-001	7.96414E-005	9	...........
	76	1.54	1.99909E-001	3.03572E-007	0.00000E+000	2.00150E-001	7.88073E-005	9	...........
	80	1.62	2.03702E-001	3.97760E-009	0.00000E+000	2.04150E-001	7.29692E-005	9	...........
	84	1.7	2.07774E-001	2.06487E-007	0.00000E+000	2.08150E-001	7.43037E-005	9	...........
	88	1.78	2.11717E-001	2.90060E-007	0.00000E+000	2.12150E-001	6.96332E-005	9	...........
	92	1.86	2.15628E-001	1.09403E-007	0.00000E+000	2.16150E-001	7.80567E-005	9	...........
	96	1.94	2.19649E-001	1.32756E-007	0.00000E+000	2.20150E-001	7.71393E-005	9	...........
	100	2.02	2.23756E-001	1.11571E-007	0.00000E+000	2.24150E-001	7.73061E-005	9	...........
	104	2.1	2.27658E-001	9.99845E-007	0.00000E+000	2.28150E-001	7.51377E-005	9	...........
	108	2.18	2.31752E-001	2.07655E-007	0.00000E+000	2.32150E-001	7.58049E-005	9	...........
	112	2.26	2.35629E-001	2.07488E-007	0.00000E+000	2.36150E-001	7.48875E-005	9	...........
	116	2.34	2.39635E-001	2.35679E-007	0.00000E+000	2.40150E-001	7.38032E-005	9	...........
	120	2.42	2.43688E-001	6.86238E-007	0.00000E+000	2.44150E-001	6.24606E-005	9	...........
	124	2.5	2.47606E-001	2.54195E-007	0.00000E+000	2.48150E-001	7.79733E-005	9	...........
	128	2.58	2.51642E-001	1.01486E-006	0.00000E+000	2.52150E-001	8.56463E-005	9	...........
	132	2.66	2.55693E-001	2.52027E-007	0.00000E+000	2.56150E-001	8.14762E-005	9	...........
	136	2.74	2.59664E-001	5.60128E-007	0.00000E+000	2.60150E-001	7.41369E-005	9	...........
	140	2.82	2.63643E-001	4.54870E-007	0.00000E+000	2.64150E-001	7.22186E-005	9	...........
	144	2.9	2.67638E-001	3.62623E-007	0.00000E+000	2.68150E-001	6.92162E-005	9	...........
	148	2.98	2.71755E-001	1.14931E-006	0.00000E+000	2.72150E-001	7.72227E-005	9	...........
	152	3.06	2.75622E-001	3.31596E-007	0.00000E+000	2.76150E-001	7.32194E-005	9	...........
	156	3.14	2.79793E-001	8.94419E-007	0.00000E+000	2.80150E-001	6.25440E-005	9	...........
	160	3.22	2.83597E-001	4.61543E-007	0.00000E+000	2.84150E-001	7.33862E-005	9	...........
	164	3.3	2.87605E-001	5.04246E-007	0.00000E+000	2.88150E-001	7.80567E-005	9	...........
	168	3.38	2.91617E-001	1.04221E-006	0.00000E+000	2.92150E-001	7.79733E-005	9	...........
	172	3.46	2.95801E-001	4.49699E-007	0.00000E+000	2.96150E-001	7.23854E-005	9	...........
	176	3.54	2.99614E-001	7.61804E-007	0.00000E+000	3.00150E-001	7.05506E-005	9	...........
	180	3.62	3.03726E-001	9.03427E-007	0.00000E+000	3.04150E-001	6.52963E-005	9	...........
	184	3.7	3.07562E-001	5.45616E-007	0.00000E+000	3.08150E-001	7.53879E-005	9	...........
	188	3.78	3.11567E-001	1.52013E-006	0.00000E+000	3.12150E-001	7.06340E-005	9	...........
	192	3.86	3.15576E-001	5.03579E-007	0.00000E+000	3.16150E-001	7.92243E-005	9	...........
	196	3.94	3.19575E-001	6.01331E-007	0.00000E+000	3.20150E-001	6.72979E-005	9	...........
	200	4.02	3.23599E-001	8.17019E-007	0.00000E+000	3.24150E-001	7.58049E-005	9	...........
	204	4.1	3.27660E-001	5.85150E-007	0.00000E+000	3.28150E-001	7.74729E-005	9	...........
	208	4.18	3.31587E-001	5.77477E-007	0.00000E+000	3.32150E-001	6.93830E-005	9	...........
	212	4.26	3.35563E-001	1.62172E-006	0.00000E+000	3.36150E-001	7.43037E-005	9	...........
	216	4.34	3.39578E-001	6.95913E-007	0.00000E+000	3.40150E-001	7.29692E-005	9	...........
	220	4.42	3.43568E-001	9.37624E-007	0.00000E+000	3.44150E-001	6.99668E-005	9	...........
	224	4.5	3.47623E-001	1.11978E-006	0.00000E+000	3.48150E-001	6.92162E-005	9	...........
	228	4.58	3.51529E-001	5.42613E-007	0.00000E+000	3.52150E-001	7.66389E-005	9	...........
	232	4.66	3.55582E-001	1.71163E-006	0.00000E+000	3.56150E-001	7.94746E-005	9	...........
	236	4.74	3.59590E-001	8.04174E-007	0.00000E+000	3.60150E-001	7.60551E-005	9	...........
	240	4.82	3.63580E-001	8.63893E-007	0.00000E+000	3.64150E-001	7.29692E-005	9	...........
	244	4.9	3.67695E-001	1.31612E-006	0.00000E+000	3.68150E-001	6.11262E-005	9	...........
	248	4.98	3.71473E-001	6.50707E-007	0.00000E+000	3.72150E-001	7.75563E-005	9	...........
	252	5.06	3.75562E-001	1.80388E-006	0.00000E+000	3.76150E-001	7.36364E-005	9	...........
	256	5.14	3.79589E-001	8.37703E-007	0.00000E+000	3.80150E-001	7.81401E-005	9	...........
	260	5.22	3.83597E-001	1.04005E-006	0.00000E+000	3.84150E-001	6.67975E-005	9	...........
	264	5.3	3.87566E-001	8.65895E-007	0.00000E+000	3.88150E-001	7.56381E-005	9	...........
	268	5.38	3.91548E-001	8.46878E-007	0.00000E+000	3.92150E-001	7.33028E-005	9	...........
	272	5.46	3.95552E-001	8.71233E-007	0.00000E+000	3.96150E-001	8.15596E-005	9	...........
	276	5.54	3.99571E-001	9.78993E-007	0.00000E+000	4.00150E-001	7.92243E-005	9	...........
	280	5.62	4.03560E-001	1.30644E-006	0.00000E+000	4.04150E-001	7.75563E-005	9	...........
	284	5.7	4.07730E-001	1.77018E-006	0.00000E+000	4.08150E-001	5.99586E-005	9	...........
	288	5.78	4.11519E-001	9.55139E-007	0.00000E+000	4.12150E-001	8.18098E-005	9	...........
	292	5.86	4.15490E-001	1.66025E-006	0.00000E+000	4.16150E-001	8.31442E-005	9	...........
	296	5.94	4.19501E-001	1.12312E-006	0.00000E+000	4.20150E-001	8.23936E-005	9	...........
	300	6.02	4.23685E-001	1.43339E-006	0.00000E+000	4.24150E-001	7.58049E-005	9	...........
	304	6.1	4.27604E-001	1.55967E-006	0.00000E+000	4.28150E-001	6.87158E-005	9	...........
	308	6.18	4.31523E-001	9.87167E-007	0.00000E+000	4.32150E-001	8.14762E-005	9	...........
	312	6.26	4.35484E-001	2.16069E-006	0.00000E+000	4.36150E-001	8.43953E-005	9	...........
	316	6.34	4.39451E-001	1.21870E-006	0.00000E+000	4.40150E-001	8.73977E-005	9	...........
	320	6.42	4.43508E-001	1.59336E-006	0.00000E+000	4.44150E-001	8.20600E-005	9	...........
	324	6.5	4.47462E-001	1.04071E-006	0.00000E+000	4.48150E-001	8.92325E-005	9	...........
	328	6.58	4.51512E-001	1.09409E-006	0.00000E+000	4.52150E-001	8.59799E-005	9	...........
	332	6.66	4.55475E-001	2.25727E-006	0.00000E+000	4.56150E-001	8.60633E-005	9	...........
	336	6.74	4.59487E-001	1.42638E-006	0.00000E+000	4.60150E-001	8.73977E-005	9	...........
	340	6.82	4.63691E-001	2.28596E-006	0.00000E+000	4.64150E-001	5.92080E-005	9	...........
	344	6.9	4.67437E-001	1.87728E-006	0.00000E+000	4.68150E-001	8.71475E-005	9	...........
	348	6.98	4.71425E-001	1.83307E-006	0.00000E+000	4.72150E-001	8.03920E-005	9	...........
	352	7.06	4.75415E-001	1.83207E-006	0.00000E+000	4.76150E-001	7.88073E-005	9	...........
	356	7.14	4.79456E-001	2.50582E-006	0.00000E+000	4.80150E-001	8.08090E-005	9	...........
	360	7.22	4.83469E-001	1.53014E-006	0.00000E+000	4.84150E-001	8.47289E-005	9	...........
	364	7.3	4.87451E-001	1.94483E-006	0.00000E+000	4.88150E-001	9.06504E-005	9	...........
	368	7.38	4.91516E-001	1.91614E-006	0.00000E+000	4.92150E-001	7.39701E-005	9	...........
	372	7.46	4.95435E-001	1.43723E-006	0.00000E+000	4.96150E-001	8.51459E-005	9	...........
	376	7.54	4.99425E-001	2.04325E-006	0.00000E+000	5.00150E-001	8.20600E-005	9	...........
	380	7.62	5.03404E-001	1.68911E-006	0.00000E+000	5.04150E-001	8.26438E-005	9	...........
	384	7.7	5.07472E-001	2.15318E-006	0.00000E+000	5.08150E-001	7.71393E-005	9	...........
	388	7.78	5.11558E-001	2.21907E-006	0.00000E+000	5.12150E-001	6.88826E-005	9	...........
	392	7.86	5.15407E-001	1.57368E-006	0.00000E+000	5.16150E-001	8.06422E-005	9	...........
	396	7.94	5.19408E-001	2.72084E-006	0.00000E+000	5.20150E-001	8.35612E-005	9	...........
	400	8.02	5.23406E-001	1.91381E-006	0.00000E+000	5.24150E-001	7.81401E-005	9	...........
	404	8.1	5.27539E-001	2.52834E-006	0.00000E+000	5.28150E-001	7.37198E-005	9	...........
	408	8.18	5.31403E-001	1.60137E-006	0.00000E+000	5.32150E-001	8.66471E-005	9	...........
	412	8.26	5.35402E-001	1.60454E-006	0.00000E+000	5.36150E-001	8.33110E-005	9	...........
	416	8.34	5.39394E-001	2.84612E-006	0.00000E+000	5.40150E-001	7.94746E-005	9	...........
	420	8.42	5.43375E-001	1.85159E-006	0.00000E+000	5.44150E-001	8.18932E-005	9	...........
	424	8.5	5.47406E-001	2.32633E-006	0.00000E+000	5.48150E-001	7.88907E-005	9	...........
	428	8.58	5.51519E-001	2.59073E-006	0.00000E+000	5.52150E-001	6.95498E-005	9	...........
	432	8.66	5.55382E-001	1.79620E-006	0.00000E+000	5.56150E-001	8.51459E-005	9	...........
	436	8.74	5.59375E-001	1.90713E-006	0.00000E+000	5.60150E-001	8.76479E-005	9	...........
	440	8.82	5.63386E-001	3.16923E-006	0.00000E+000	5.64150E-001	7.64721E-005	9	...........
	444	8.9	5.67381E-001	2.35236E-006	0.00000E+000	5.68150E-001	7.60551E-005	9	...........
	448	8.98	5.71406E-001	2.52250E-006	0.00000E+000	5.72150E-001	7.98916E-005	9	...........
	452	9.06	5.75453E-001	2.65212E-006	0.00000E+000	5.76150E-001	6.74647E-005	9	...........
	456	9.14	5.79384E-001	1.97386E-006	0.00000E+000	5.80150E-001	8.21434E-005	9	...........
	460	9.22	5.83391E-001	3.11035E-006	0.00000E+000	5.84150E-001	7.80567E-005	9	...........
	464	9.3	5.87390E-001	2.47746E-006	0.00000E+000	5.88150E-001	8.18098E-005	9	...........
	468	9.38	5.91446E-001	2.93002E-006	0.00000E+000	5.92150E-001	7.39701E-005	9	...........
	472	9.46	5.95370E-001	2.13517E-006	0.00000E+000	5.96150E-001	8.30608E-005	9	...........
	476	9.54	5.99357E-001	2.19255E-006	0.00000E+000	6.00150E-001	7.92243E-005	9	...........
	480	9.62	6.03369E-001	2.30848E-006	0.00000E+000	6.04150E-001	8.43953E-005	9	...........
	484	9.7	6.07350E-001	3.41778E-006	0.00000E+000	6.08150E-001	7.84737E-005	9	...........
	488	9.78	6.11358E-001	2.25977E-006	0.00000E+000	6.12150E-001	8.30608E-005	9	...........
	492	9.86	6.15344E-001	2.80525E-006	0.00000E+000	6.16150E-001	7.88907E-005	9	...........
	496	9.94	6.19322E-001	2.12216E-006	0.00000E+000	6.20150E-001	9.04836E-005	9	...........
	500	10.02	6.23292E-001	2.41558E-006	0.00000E+000	6.24150E-001	8.06422E-005	9	...........
	504	10.1	6.27327E-001	2.45795E-006	0.00000E+000	6.28150E-001	7.46373E-005	9	...........
	508	10.18	6.31220E-001	3.77076E-006	0.00000E+000	6.32150E-001	7.86405E-005	9	...........
	512	10.26	6.35322E-001	2.59273E-006	0.00000E+000	6.36150E-001	7.88907E-005	9	...........
	516	10.34	6.39480E-001	3.56658E-006	0.00000E+000	6.40150E-001	5.96250E-005	9	...........
	520	10.42	6.43289E-001	2.40073E-006	0.00000E+000	6.44150E-001	8.16430E-005	9	...........
	524	10.5	6.47288E-001	2.35519E-006	0.00000E+000	6.48150E-001	7.77231E-005	9	...........
	528	10.58	6.51313E-001	3.32270E-006	0.00000E+000	6.52150E-001	8.56463E-005	9	...........
	532	10.66	6.55276E-001	3.10451E-006	0.00000E+000	6.56150E-001	9.29022E-005	9	...........
	536	10.74	6.59433E-001	3.80112E-006	0.00000E+000	6.60150E-001	6.06258E-005	9	...........
	540	10.82	6.63259E-001	2.58456E-006	0.00000E+000	6.64150E-001	8.61467E-005	9	...........
	544	10.9	6.67299E-001	2.49231E-006	0.00000E+000	6.68150E-001	8.15596E-005	9	...........
	548	10.98	6.71263E-001	2.58573E-006	0.00000E+000	6.72150E-001	8.79815E-005	9	...........
	552	11.06	6.75308E-001	4.03916E-006	0.00000E+000	6.76150E-001	8.76479E-005	9	...........
	556	11.14	6.79219E-001	2.97573E-006	0.00000E+000	6.80150E-001	8.45620E-005	9	...........
	560	11.22	6.83367E-001	3.81630E-006	0.00000E+000	6.84150E-001	7.43871E-005	9	...........
	564	11.3	6.87260E-001	3.20643E-006	0.00000E+000	6.88150E-001	8.16430E-005	9	...........
	568	11.38	6.91251E-001	3.26582E-006	0.00000E+000	6.92150E-001	8.31442E-005	9	...........
	572	11.46	6.95258E-001	5.87509E-006	0.00000E+000	6.96150E-001	8.79815E-005	9	...........
	576	11.54	6.99279E-001	4.94495E-006	0.00000E+000	7.00150E-001	8.26438E-005	9	...........
	580	11.62	7.03367E-001	5.83022E-006	0.00000E+000	7.04150E-001	6.40453E-005	9	...........
	584	11.7	7.07251E-001	4.41048E-006	0.00000E+000	7.08150E-001	8.81483E-005	9	...........
	588	11.78	7.11165E-001	4.85253E-006	0.00000E+000	7.12150E-001	8.33110E-005	9	...........
	592	11.86	7.15268E-001	3.98661E-006	0.00000E+000	7.16150E-001	7.93912E-005	9	...........
	596	11.94	7.19217E-001	3.49552E-006	0.00000E+000	7.20150E-001	8.72309E-005	9	...........
	600	12.02	7.23253E-001	4.14842E-006	0.00000E+000	7.24150E-001	8.24770E-005	9	...........
	604	12.1	7.27256E-001	4.34009E-006	0.00000E+000	7.28150E-001	7.96414E-005	9	...........
	608	12.18	7.31375E-001	5.03603E-006	0.00000E+000	7.32150E-001	7.02170E-005	9	...........
	612	12.26	7.35175E-001	4.17945E-006	0.00000E+000	7.36150E-001	7.87239E-005	9	...........
	616	12.34	7.39238E-001	4.13040E-006	0.00000E+000	7.40150E-001	8.37280E-005	9	...........
	620	12.42	7.43155E-001	3.51503E-006	0.00000E+000	7.44150E-001	7.76397E-005	9	...........
	624	12.5	7.47237E-001	3.24930E-006	0.00000E+000	7.48150E-001	8.38114E-005	9	...........
	628	12.58	7.51209E-001	4.13724E-006	0.00000E+000	7.52150E-001	7.44705E-005	9	...........
	632	12.66	7.55330E-001	4.95712E-006	0.00000E+000	7.56150E-001	7.08008E-005	9	...........
	636	12.74	7.59033E-001	2.97957E-006	0.00000E+000	7.60150E-001	7.98082E-005	9	...........
	640	12.82	7.63218E-001	2.95988E-006	0.00000E+000	7.64150E-001	8.83151E-005	9	...........
	644	12.9	7.67156E-001	4.89157E-006	0.00000E+000	7.68150E-001	7.92243E-005	9	...........
	648	12.98	7.71214E-001	3.32320E-006	0.00000E+000	7.72150E-001	7.95580E-005	9	...........
	652	13.06	7.75211E-001	3.88102E-006	0.00000E+000	7.76150E-001	8.06422E-005	9	...........
	656	13.14	7.79335E-001	4.81083E-006	0.00000E+000	7.80150E-001	6.79651E-005	9	...........
	660	13.22	7.83143E-001	3.70954E-006	0.00000E+000	7.84150E-001	8.63969E-005	9	...........
	664	13.3	7.87211E-001	3.88302E-006	0.00000E+000	7.88150E-001	7.83069E-005	9	...........
	668	13.38	7.91133E-001	4.44251E-006	0.00000E+000	7.92150E-001	8.02252E-005	9	...........
	672	13.46	7.95205E-001	3.95091E-006	0.00000E+000	7.96150E-001	8.37280E-005	9	...........
	676	13.54	7.99165E-001	4.76362E-006	0.00000E+000	8.00150E-001	7.58883E-005	9	...........
	680	13.62	7.95236E-001	4.27353E-006	0.00000E+000	7.96150E-001	6.98834E-005	9	...........
	684	13.7	7.91160E-001	3.97994E-006	0.00000E+000	7.92150E-001	7.73895E-005	9	...........
	688	13.78	7.87241E-001	5.04370E-006	0.00000E+000	7.88150E-001	7.90576E-005	9	...........
	692	13.86	7.83143E-001	4.14075E-006	0.00000E+000	7.84150E-001	7.94746E-005	9	...........
	696	13.94	7.79371E-001	5.00033E-006	0.00000E+000	7.80150E-001	6.77149E-005	9	...........
	700	14.02	7.75216E-001	3.77943E-006	0.00000E+000	7.76150E-001	7.90576E-005	9	...........
	704	14.1	7.71234E-001	3.70070E-006	0.00000E+000	7.72150E-001	7.78899E-005	9	...........
	708	14.18	7.67160E-001	4.52458E-006	0.00000E+000	7.68150E-001	8.26438E-005	9	...........
	712	14.26	7.63236E-001	3.83398E-006	0.00000E+000	7.64150E-001	7.82235E-005	9	...........
	716	14.34	7.59272E-001	4.71074E-006	0.00000E+000	7.60150E-001	6.04590E-005	9	...........
	720	14.42	7.55237E-001	3.53155E-006	0.00000E+000	7.56150E-001	7.82235E-005	9	...........
	724	14.5	7.51194E-001	3.42245E-006	0.00000E+000	7.52150E-001	7.86405E-005	9	...........
	728	14.58	7.47239E-001	4.44568E-006	0.00000E+000	7.48150E-001	7.48875E-005	9	...........
	732	14.66	7.43181E-001	3.46349E-006	0.00000E+000	7.44150E-001	7.53045E-005	9	...........
	736	14.74	7.39262E-001	3.65282E-006	0.00000E+000	7.40150E-001	7.61385E-005	9	...........
	740	14.82	7.35200E-001	3.60962E-006	0.00000E+000	7.36150E-001	8.35612E-005	9	...........
	744	14.9	7.31274E-001	3.68802E-006	0.00000E+000	7.32150E-001	7.75563E-005	9	...........
	748	14.98	7.27284E-001	3.59360E-006	0.00000E+000	7.28150E-001	7.52211E-005	9	...........
	752	15.06	7.23253E-001	3.09850E-006	0.00000E+000	7.24150E-001	7.49709E-005	9	...........
	756	15.14	7.19176E-001	3.03779E-006	0.00000E+000	7.20150E-001	8.13928E-005	9	...........
	760	15.22	7.15274E-001	3.56174E-006	0.00000E+000	7.16150E-001	7.98916E-005	9	...........
	764	15.3	7.11266E-001	3.49418E-006	0.00000E+000	7.12150E-001	7.50543E-005	9	...........
	768	15.38	7.07395E-001	3.80112E-006	0.00000E+000	7.08150E-001	6.66307E-005	9	...........
	772	15.46	7.03216E-001	2.77956E-006	0.00000E+000	7.04150E-001	7.85571E-005	9	...........
	776	15.54	6.99275E-001	2.77139E-006	0.00000E+000	7.00150E-001	8.32276E-005	9	...........
	780	15.62	6.95229E-001	3.88469E-006	0.00000E+000	6.96150E-001	7.68891E-005	9	...........
	784	15.7	6.91260E-001	3.01643E-006	0.00000E+000	6.92150E-001	7.35530E-005	9	...........
	788	15.78	6.87413E-001	3.93056E-006	0.00000E+000	6.88150E-001	5.97918E-005	9	...........
	792	15.86	6.83299E-001	2.73185E-006	0.00000E+000	6.84150E-001	8.18098E-005	9	...........
	796	15.94	6.79187E-001	2.68364E-006	0.00000E+000	6.80150E-001	7.73895E-005	9	...........
	800	16.02	6.75312E-001	3.22612E-006	0.00000E+000	6.76150E-001	7.98916E-005	9	...........
	804	16.1	6.71290E-001	2.91568E-006	0.00000E+000	6.72150E-001	7.93912E-005	9	...........
	808	16.18	6.67444E-001	3.87735E-006	0.00000E+000	6.68150E-001	6.01254E-005	9	...........
	812	16.26	6.63249E-001	2.60658E-006	0.00000E+000	6.64150E-001	8.10592E-005	9	...........
	816	16.34	6.59299E-001	2.54869E-006	0.00000E+000	6.60150E-001	7.73895E-005	9	...........
	820	16.42	6.55177E-001	2.99241E-006	0.00000E+000	6.56150E-001	7.98916E-005	9	...........
	824	16.5	6.51332E-001	3.14988E-006	0.00000E+000	6.52150E-001	7.47207E-005	9	...........
	828	16.58	6.47437E-001	3.54890E-006	0.00000E+000	6.48150E-001	6.08760E-005	9	...........
	832	16.66	6.43296E-001	2.55353E-006	0.00000E+000	6.44150E-001	7.93912E-005	9	...........
	836	16.74	6.39297E-001	2.63560E-006	0.00000E+000	6.40150E-001	7.71393E-005	9	...........
	840	16.82	6.35328E-001	2.53285E-006	0.00000E+000	6.36150E-001	7.07174E-005	9	...........
	844	16.9	6.31248E-001	2.84645E-006	0.00000E+000	6.32150E-001	6.97166E-005	9	...........
	848	16.98	6.27404E-001	3.12937E-006	0.00000E+000	6.28150E-001	6.66307E-005	9	...........
	852	17.06	6.23288E-001	2.32016E-006	0.00000E+000	6.24150E-001	7.98916E-005	9	...........
	856	17.14	6.19319E-001	2.29347E-006	0.00000E+000	6.20150E-001	7.43871E-005	9	...........
	860	17.22	6.15314E-001	3.37191E-006	0.00000E+000	6.16150E-001	7.79733E-005	9	...........
	864	17.3	6.11374E-001	2.69148E-006	0.00000E+000	6.12150E-001	8.03920E-005	9	...........
	868	17.38	6.07539E-001	3.28800E-006	0.00000E+000	6.08150E-001	6.55465E-005	9	...........
	872	17.46	6.03375E-001	2.24476E-006	0.00000E+000	6.04150E-001	7.92243E-005	9	...........
	876	17.54	5.99356E-001	2.17870E-006	0.00000E+000	6.00150E-001	8.08924E-005	9	...........
	880	17.62	5.95374E-001	2.41074E-006	0.00000E+000	5.96150E-001	9.02334E-005	9	...........
	884	17.7	5.91379E-001	2.39456E-006	0.00000E+000	5.92150E-001	8.28106E-005	9	...........
	888	17.78	5.87534E-001	2.92736E-006	0.00000E+000	5.88150E-001	6.43789E-005	9	...........
	892	17.86	5.83375E-001	1.87728E-006	0.00000E+000	5.84150E-001	8.27272E-005	9	...........
	896	17.94	5.79395E-001	2.52000E-006	0.00000E+000	5.80150E-001	8.29774E-005	9	...........
	900	18.02	5.75362E-001	1.88929E-006	0.00000E+000	5.76150E-001	8.08924E-005	9	...........
	904	18.1	5.71411E-001	2.32300E-006	0.00000E+000	5.72150E-001	8.05588E-005	9	...........
	908	18.18	5.67516E-001	2.62393E-006	0.00000E+000	5.68150E-001	5.84574E-005	9	...........
	912	18.26	5.63384E-001	1.74533E-006	0.00000E+000	5.64150E-001	8.13928E-005	9	...........
	916	18.34	5.59385E-001	2.62976E-006	0.00000E+000	5.60150E-001	7.39701E-005	9	...........
	920	18.42	5.55396E-001	1.82823E-006	0.00000E+000	5.56150E-001	7.37198E-005	9	...........
	924	18.5	5.51346E-001	1.97169E-006	0.00000E+000	5.52150E-001	7.18850E-005	9	...........
	928	18.58	5.47400E-001	1.59436E-006	0.00000E+000	5.48150E-001	8.15596E-005	9	...........
	932	18.66	5.43388E-001	1.53064E-006	0.00000E+000	5.44150E-001	8.36446E-005	9	...........
	936	18.74	5.39396E-001	1.33580E-006	0.00000E+000	5.40150E-001	8.29774E-005	9	...........
	940	18.82	5.35421E-001	1.63306E-006	0.00000E+000	5.36150E-001	8.63135E-005	9	...........
	944	18.9	5.31413E-001	1.58185E-006	0.00000E+000	5.32150E-001	8.07256E-005	9	...........
	948	18.98	5.27400E-001	1.84191E-006	0.00000E+000	5.28150E-001	7.97248E-005	9	...........
	952	19.06	5.23552E-001	2.45428E-006	0.00000E+000	5.24150E-001	6.44623E-005	9	...........
	956	19.14	5.19415E-001	1.49294E-006	0.00000E+000	5.20150E-001	8.58965E-005	9	...........
	960	19.22	5.15410E-001	1.45674E-006	0.00000E+000	5.16150E-001	7.57215E-005	9	...........
	964	19.3	5.11425E-001	2.10798E-006	0.00000E+000	5.12150E-001	7.48041E-005	9	...........
	968	19.38	5.07461E-001	1.81322E-006	0.00000E+000	5.08150E-001	7.73061E-005	9	...........
	972	19.46	5.03580E-001	2.15852E-006	0.00000E+000	5.04150E-001	5.29529E-005	9	...........
	976	19.54	4.99439E-001	1.30044E-006	0.00000E+000	5.00150E-001	7.72227E-005	9	...........
	980	19.62	4.95441E-001	1.87427E-006	0.00000E+000	4.96150E-001	8.13094E-005	9	...........
	984	19.7	4.91446E-001	1.23455E-006	0.00000E+000	4.92150E-001	8.24770E-005	9	...........
	988	19.78	4.87448E-001	1.51363E-006	0.00000E+000	4.88150E-001	8.20600E-005	9	...........
	992	19.86	4.83534E-001	1.34281E-006	0.00000E+000	4.84150E-001	7.49709E-005	9	...........
	996	19.94	4.79467E-001	1.08725E-006	0.00000E+000	4.80150E-001	7.92243E-005	9	...........
	1000	20.02	4.75468E-001	2.08079E-006	0.00000E+000	4.76150E-001	7.98916E-005	9	...........
	1004	20.1	4.71445E-001	1.07341E-006	0.00000E+000	4.72150E-001	7.86405E-005	9	...........
	1008	20.18	4.67508E-001	1.47626E-006	0.00000E+000	4.68150E-001	7.64721E-005	9	...........
	1012	20.26	4.63466E-001	1.14564E-006	0.00000E+000	4.64150E-001	8.36446E-005	9	...........
	1016	20.34	4.59497E-001	1.02537E-006	0.00000E+000	4.60150E-001	8.18932E-005	9	...........
	1020	20.42	4.55472E-001	1.84341E-006	0.00000E+000	4.56150E-001	8.88989E-005	9	...........
	1024	20.5	4.51506E-001	1.02553E-006	0.00000E+000	4.52150E-001	7.78065E-005	9	...........
	1028	20.58	4.47457E-001	9.37957E-007	0.00000E+000	4.48150E-001	7.90576E-005	9	...........
	1032	20.66	4.43601E-001	1.68844E-006	0.00000E+000	4.44150E-001	6.31278E-005	9	...........
	1036	20.74	4.39455E-001	9.49968E-007	0.00000E+000	4.40150E-001	8.68139E-005	9	...........
	1040	20.82	4.35490E-001	1.18451E-006	0.00000E+000	4.36150E-001	7.69725E-005	9	...........
	1044	20.9	4.31510E-001	8.95253E-007	0.00000E+000	4.32150E-001	7.94746E-005	9	...........
	1048	20.98	4.27550E-001	1.15398E-006	0.00000E+000	4.28150E-001	7.37198E-005	9	...........
	1052	21.06	4.23699E-001	1.07875E-006	0.00000E+000	4.24150E-001	7.47207E-005	9	...........
	1056	21.14	4.19489E-001	8.14016E-007	0.00000E+000	4.20150E-001	8.87321E-005	9	...........
	1060	21.22	4.15473E-001	7.24772E-007	0.00000E+000	4.16150E-001	8.00584E-005	9	...........
	1064	21.3	4.11488E-001	1.59103E-006	0.00000E+000	4.12150E-001	7.63887E-005	9	...........
	1068	21.38	4.07524E-001	6.92410E-007	0.00000E+000	4.08150E-001	7.22186E-005	9	...........
	1072	21.46	4.03571E-001	9.12268E-007	0.00000E+000	4.04150E-001	7.76397E-005	9	...........
	1076	21.54	3.99497E-001	7.18266E-007	0.00000E+000	4.00150E-001	8.20600E-005	9	...........
	1080	21.62	3.95532E-001	6.65554E-007	0.00000E+000	3.96150E-001	7.56381E-005	9	...........
	1084	21.7	3.91532E-001	1.53197E-006	0.00000E+000	3.92150E-001	7.44705E-005	9	...........
	1088	21.78	3.87549E-001	6.65887E-007	0.00000E+000	3.88150E-001	7.80567E-005	9	...........
	1092	21.86	3.83772E-001	1.21820E-006	0.00000E+000	3.84150E-001	6.61303E-005	9	...........
	1096	21.94	3.79569E-001	6.09004E-007	0.00000E+000	3.80150E-001	7.83069E-005	9	...........
	1100	22.02	3.75536E-001	5.40111E-007	0.00000E+000	3.76150E-001	7.93078E-005	9	...........
	1104	22.1	3.71470E-001	7.24105E-007	0.00000E+000	3.72150E-001	7.92243E-005	9	...........
	1108	22.18	3.67541E-001	4.02158E-007	0.00000E+000	3.68150E-001	7.58883E-005	9	...........
	1112	22.26	3.63585E-001	6.92410E-007	0.00000E+000	3.64150E-001	7.62219E-005	9	...........
	1116	22.34	3.59601E-001	6.13175E-007	0.00000E+000	3.60150E-001	7.85571E-005	9	...........
	1120	22.42	3.55544E-001	4.10832E-007	0.00000E+000	3.56150E-001	7.92243E-005	9	...........
	1124	22.5	3.51541E-001	1.09493E-006	0.00000E+000	3.52150E-001	7.96414E-005	9	...........
	1128	22.58	3.47507E-001	2.63203E-007	0.00000E+000	3.48150E-001	7.88073E-005	9	...........
	1132	22.66	3.43517E-001	3.54116E-007	0.00000E+000	3.44150E-001	7.94746E-005	9	...........
	1136	22.74	3.39599E-001	5.40611E-007	0.00000E+000	3.40150E-001	7.08008E-005	9	...........
	1140	22.82	3.35519E-001	2.97066E-007	0.00000E+000	3.36150E-001	7.61385E-005	9	...........
	1144	22.9	3.31587E-001	1.08475E-006	0.00000E+000	3.32150E-001	7.32194E-005	9	...........
	1148	22.98	3.27627E-001	1.70956E-007	0.00000E+000	3.28150E-001	7.34697E-005	9	...........
	1152	23.06	3.23675E-001	7.62471E-007	0.00000E+000	3.24150E-001	5.45375E-005	9	...........
	1156	23.14	3.19566E-001	3.66627E-007	0.00000E+000	3.20150E-001	7.68057E-005	9	...........
	1160	23.22	3.15580E-001	2.93396E-007	0.00000E+000	3.16150E-001	7.29692E-005	9	...........
	1164	23.3	3.11540E-001	2.11325E-007	0.00000E+000	3.12150E-001	7.86405E-005	9	...........
	1168	23.38	3.07548E-001	9.93940E-008	0.00000E+000	3.08150E-001	7.23854E-005	9	...........
	1172	23.46	3.03642E-001	2.22835E-007	0.00000E+000	3.04150E-001	6.64639E-005	9	...........
	1176	23.54	2.99735E-001	6.74061E-007	0.00000E+000	3.00150E-001	5.88744E-005	9	...........
	1180	23.62	2.95772E-001	1.05900E-007	0.00000E+000	2.96150E-001	7.48041E-005	9	...........
	1184	23.7	2.91620E-001	8.14016E-007	0.00000E+000	2.92150E-001	7.21352E-005	9	...........
	1188	23.78	2.87591E-001	2.54963E-008	0.00000E+000	2.88150E-001	7.11344E-005	9	...........
	1192	23.86	2.83622E-001	1.91641E-007	0.00000E+000	2.84150E-001	7.09676E-005	9	...........
	1196	23.94	2.79622E-001	6.48639E-008	0.00000E+000	2.80150E-001	7.01336E-005	9	...........
	1200	24.02	2.75617E-001	2.66640E-008	0.00000E+000	2.76150E-001	7.03838E-005	9	...........
	1204	24.1	2.71735E-001	7.29276E-007	0.00000E+000	2.72150E-001	7.32194E-005	9	...........
	1208	24.18	2.67621E-001	-2.78835E-008	0.00000E+000	2.68150E-001	7.32194E-005	9	...........
	1212	24.26	2.63657E-001	6.78666E-008	0.00000E+000	2.64150E-001	6.75481E-005	9	...........
	1216	24.34	2.59767E-001	3.91482E-007	0.00000E+000	2.60150E-001	6.02922E-005	9	...........
	1220	24.42	2.55654E-001	-6.77515E-008	0.00000E+000	2.56150E-001	7.42203E-005	9	...........
	1224	24.5	2.51632E-001	-5.52406E-008	0.00000E+000	2.52150E-001	7.03838E-005	9	...........
	1228	24.58	2.47629E-001	4.28514E-007	0.00000E+000	2.48150E-001	7.01336E-005	9	...........
	1232	24.66	2.43563E-001	-3.38654E-007	0.00000E+000	2.44150E-001	7.63053E-005	9	...........
	1236	24.74	2.39651E-001	-1.48155E-007	0.00000E+000	2.40150E-001	6.57967E-005	9	...........
	1240	24.82	2.35745E-001	1.25750E-007	0.00000E+000	2.36150E-001	5.89578E-005	9	...........
	1244	24.9	2.31693E-001	-1.65670E-007	0.00000E+000	2.32150E-001	7.04672E-005	9	...........
	1248	24.98	2.27657E-001	3.27259E-007	0.00000E+000	2.28150E-001	7.14680E-005	9	...........
	1252	25.06	2.23708E-001	-4.50251E-007	0.00000E+000	2.24150E-001	6.99668E-005	9	...........
	1256	25.14	2.19659E-001	-2.14046E-007	0.00000E+000	2.20150E-001	6.96332E-005	9	...........
	1260	25.22	2.15818E-001	5.08517E-008	0.00000E+000	2.16150E-001	5.95416E-005	9	...........
	1264	25.3	2.11655E-001	-2.48242E-007	0.00000E+000	2.12150E-001	6.63805E-005	9	...........
	1268	25.38	2.07668E-001	-3.57170E-007	0.00000E+000	2.08150E-001	6.86324E-005	9	...........
	1272	25.46	2.03711E-001	-1.33309E-007	0.00000E+000	2.04150E-001	6.49627E-005	9	...........
	1276	25.54	1.99918E-001	-4.85949E-007	0.00000E+000	2.00150E-001	6.82987E-005	9	...........
	1280	25.62	1.95818E-001	-1.27303E-007	0.00000E+000	1.96150E-001	5.29529E-005	9	...........
	1284	25.7	1.91689E-001	-3.73184E-007	0.00000E+000	1.92150E-001	7.19684E-005	9	...........
	1288	25.78	1.87704E-001	-3.59005E-007	0.00000E+000	1.88150E-001	7.18016E-005	9	...........
	1292	25.86	1.83713E-001	-6.33911E-007	0.00000E+000	1.84150E-001	6.92162E-005	9	...........
	1296	25.94	1.79745E-001	-5.61348E-007	0.00000E+000	1.80150E-001	7.38866E-005	9	...........
	1300	26.02	1.75936E-001	-2.80437E-007	0.00000E+000	1.76150E-001	5.46209E-005	9	...........
	1304	26.1	1.71741E-001	-4.94290E-007	0.00000E+000	1.72150E-001	7.47207E-005	9	...........
	1308	26.18	1.67965E-001	-4.49918E-007	0.00000E+000	1.68150E-001	7.43037E-005	9	...........
	1312	26.26	1.63753E-001	-9.54423E-008	0.00000E+000	1.64150E-001	7.28858E-005	9	...........
	1316	26.34	1.59774E-001	-6.46422E-007	0.00000E+000	1.60150E-001	6.91328E-005	9	...........
	1320	26.42	1.55837E-001	-3.21806E-007	0.00000E+000	1.56150E-001	6.02922E-005	9	...........
	1324	26.5	1.51797E-001	-5.46168E-007	0.00000E+000	1.52150E-001	7.43037E-005	9	...........
	1328	26.58	1.47722E-001	-6.26571E-007	0.00000E+000	1.48150E-001	7.01336E-005	9	...........
	1332	26.66	1.43813E-001	-7.91882E-007	0.00000E+000	1.44150E-001	6.93830E-005	9	...........
	1336	26.74	1.39718E-001	-5.50171E-007	0.00000E+000	1.40150E-001	7.69725E-005	9	...........
	1340	26.82	1.35802E-001	-8.19906E-007	0.00000E+000	1.36150E-001	7.26356E-005	9	...........
	1344	26.9	1.31846E-001	-5.12138E-007	0.00000E+000	1.32150E-001	5.67059E-005	9	...........
	1348	26.98	1.27897E-001	-5.92041E-007	0.00000E+000	1.28150E-001	7.87239E-005	9	...........
	1352	27.06	1.23770E-001	-6.90127E-007	0.00000E+000	1.24150E-001	7.34697E-005	9	...........
	1356	27.14	1.19893E-001	-3.54668E-007	0.00000E+000	1.20150E-001	7.23020E-005	9	...........
	1360	27.22	1.15718E-001	-6.67774E-007	0.00000E+000	1.16150E-001	6.86324E-005	9	...........
	1364	27.3	1.11798E-001	-9.82047E-007	0.00000E+000	1.12150E-001	6.32947E-005	9	...........
	1368	27.38	1.07872E-001	-6.46922E-007	0.00000E+000	1.08150E-001	5.47043E-005	9	...........
	1372	27.46	1.03899E-001	-6.97300E-007	0.00000E+000	1.04150E-001	7.50543E-005	9	...........
	1376	27.54	9.97902E-002	-8.19239E-007	0.00000E+000	1.00150E-001	6.96332E-005	9	...........
	1380	27.62	9.59505E-002	-1.14636E-006	0.00000E+000	9.61500E-002	7.21352E-005	9	...........
	1384	27.7	9.18112E-002	-1.12117E-006	0.00000E+000	9.21500E-002	6.74647E-005	9	...........
	1388	27.78	8.79251E-002	-8.10898E-007	0.00000E+000	8.81500E-002	5.54549E-005	9	...........
	1392	27.86	8.37801E-002	-7.80872E-007	0.00000E+000	8.41500E-002	7.32194E-005	9	...........
	1396	27.94	7.99098E-002	-8.39924E-007	0.00000E+000	8.01500E-002	7.09676E-005	9	...........
	1400	28.02	7.58104E-002	-1.26329E-006	0.00000E+000	7.61500E-002	7.11344E-005	9	...........
	1404	28.1	7.20164E-002	-1.24728E-006	0.00000E+000	7.21500E-002	7.13012E-005	9	...........
	1408	28.18	6.78704E-002	-9.19993E-007	0.00000E+000	6.81500E-002	5.92914E-005	9	...........
	1412	28.26	6.38163E-002	-9.09484E-007	0.00000E+000	6.41500E-002	7.85571E-005	9	...........
	1416	28.34	5.98076E-002	-9.98895E-007	0.00000E+000	6.01500E-002	7.70559E-005	9	...........
	1420	28.42	5.59265E-002	-7.24657E-007	0.00000E+000	5.61500E-002	6.84655E-005	9	...........
	1424	28.5	5.18137E-002	-1.36438E-006	0.00000E+000	5.21500E-002	7.41369E-005	9	...........
	1428	28.58	4.80408E-002	-1.03159E-006	0.00000E+000	4.81500E-002	5.38703E-005	9	...........
	1432	28.66	4.38097E-002	-9.35674E-007	0.00000E+000	4.41500E-002	8.05588E-005	9	...........
	1436	28.74	4.00146E-002	-1.12701E-006	0.00000E+000	4.01500E-002	7.18850E-005	9	...........
	1440	28.82	3.58452E-002	-1.16921E-006	0.00000E+000	3.62000E-002	7.29692E-005	9	...........
	1444	28.9	3.19980E-002	-1.45396E-006	0.00000E+000	3.22000E-002	6.86324E-005	9	...........
	1448	28.98	2.79687E-002	-1.18589E-006	0.00000E+000	2.82000E-002	5.35367E-005	9	...........
	1452	29.06	2.40225E-002	-1.04594E-006	0.00000E+000	2.42000E-002	7.44705E-005	9	...........
	1456	29.14	1.98286E-002	-1.03626E-006	0.00000E+000	2.02000E-002	7.97248E-005	9	...........
	1460	29.22	1.60178E-002	-1.06829E-006	0.00000E+000	1.62000E-002	7.38032E-005	9	...........
	1464	29.3	1.18411E-002	-1.26930E-006	0.00000E+000	1.22000E-002	7.77231E-005	9	...........
	1468	29.38	7.95714E-003	-1.54153E-006	0.00000E+000	8.20000E-003	6.61303E-005	9	...........
	1472	29.46	3.95136E-003	-1.33185E-006	0.00000E+000	4.20000E-003	6.32947E-005	9	...........
	1476	29.54	1.57245E-005	-1.18923E-006	0.00000E+000	2.00003E-004	7.58049E-005	9	...........
	1480	29.62	-4.12750E-003	-1.33752E-006	0.00000E+000	-3.80000E-003	7.58883E-005	9	...........
	1484	29.7	-8.08382E-003	-1.06395E-006	0.00000E+000	-7.80000E-003	7.10510E-005	9	...........
	1488	29.78	-1.21352E-002	-1.69400E-006	0.00000E+000	-1.18000E-002	7.19684E-005	9	...........
	1492	29.86	-1.59878E-002	-1.72686E-006	0.00000E+000	-1.58000E-002	7.50543E-005	9	...........
	1496	29.94	-1.99735E-002	-1.41342E-006	0.00000E+000	-1.98000E-002	6.46291E-005	9	...........
	1500	30.02	-2.39662E-002	-1.42760E-006	0.00000E+000	-2.38000E-002	7.32194E-005	9	...........
	1504	30.1	-2.80698E-002	-1.23877E-006	0.00000E+000	-2.78000E-002	7.61385E-005	9	...........
	1508	30.18	-3.19538E-002	-1.80360E-006	0.00000E+000	-3.18000E-002	7.20518E-005	9	...........
	1512	30.26	-3.61070E-002	-1.59875E-006	0.00000E+000	-3.58000E-002	7.15514E-005	9	...........
	1516	30.34	-3.98727E-002	-1.64246E-006	0.00000E+000	-3.98000E-002	5.58719E-005	9	...........
	1520	30.42	-4.40521E-002	-1.41876E-006	0.00000E+000	-4.38000E-002	7.25522E-005	9	...........
	1524	30.5	-4.79604E-002	-1.57873E-006	0.00000E+000	-4.78000E-002	7.16348E-005	9	...........
	1528	30.58	-5.20486E-002	-1.67065E-006	0.00000E+000	-5.18000E-002	7.21352E-005	9	...........
	1532	30.66	-5.59414E-002	-1.97942E-006	0.00000E+000	-5.58000E-002	7.07174E-005	9	...........
	1536	30.74	-5.98864E-002	-1.75672E-006	0.00000E+000	-5.98000E-002	5.23690E-005	9	...........
	1540	30.82	-6.39803E-002	-1.53219E-006	0.00000E+000	-6.38000E-002	7.43037E-005	9	...........
	1544	30.9	-6.80461E-002	-1.63778E-006	0.00000E+000	-6.78000E-002	7.58883E-005	9	...........
	1548	30.98	-7.19587E-002	-1.55138E-006	0.00000E+000	-7.18000E-002	7.17182E-005	9	...........
	1552	31.06	-7.60292E-002	-2.11520E-006	0.00000E+000	-7.58000E-002	6.40453E-005	9	...........
	1556	31.14	-7.97916E-002	-1.91353E-006	0.00000E+000	-7.98000E-002	5.18686E-005	9	...........
	1560	31.22	-8.40676E-002	-1.77507E-006	0.00000E+000	-8.38000E-002	7.56381E-005	9	...........
	1564	31.3	-8.79473E-002	-1.88767E-006	0.00000E+000	-8.78000E-002	6.96332E-005	9	...........
	1568	31.38	-9.19980E-002	-1.75105E-006	0.00000E+000	-9.18000E-002	7.49709E-005	9	...........
	1572	31.46	-9.59479E-002	-2.19177E-006	0.00000E+000	-9.58000E-002	7.51377E-005	9	...........
	1576	31.54	-9.98443E-002	-2.01828E-006	0.00000E+000	-9.98000E-002	5.59553E-005	9	...........
	1580	31.62	-1.03931E-001	-1.90652E-006	0.00000E+000	-1.03800E-001	7.19684E-005	9	...........
	1584	31.7	-1.07984E-001	-2.02279E-006	0.00000E+000	-1.07800E-001	7.56381E-005	9	...........
	1588	31.78	-1.11932E-001	-1.87749E-006	0.00000E+000	-1.11800E-001	7.42203E-005	9	...........
	1592	31.86	-1.15974E-001	-2.28018E-006	0.00000E+000	-1.15800E-001	7.69725E-005	9	...........
	1596	31.94	-1.19789E-001	-2.08634E-006	0.00000E+000	-1.19800E-001	6.04590E-005	9	...........
	1600	32.02	-1.23955E-001	-2.02929E-006	0.00000E+000	-1.23800E-001	7.58049E-005	9	...........
	1604	32.1	-1.27936E-001	-2.12221E-006	0.00000E+000	-1.27800E-001	7.62219E-005	9	...........
	1608	32.18	-1.31947E-001	-2.29319E-006	0.00000E+000	-1.31800E-001	7.44705E-005	9	...........
[...]
	13583	271.68	-2.92804E-001	-1.81894E-006	0.00000E+000	-2.93000E-001	6.82153E-005	9	...........
	13585	271.72	-2.90972E-001	-2.03079E-006	0.00000E+000	-2.91000E-001	7.59717E-005	9	...........
	13587	271.76	-2.89001E-001	-2.48202E-006	0.00000E+000	-2.89000E-001	7.08008E-005	9	...........
	13589	271.8	-2.86976E-001	-2.19711E-006	0.00000E+000	-2.87000E-001	7.47207E-005	9	...........
	13591	271.84	-2.84822E-001	-2.32905E-006	0.00000E+000	-2.85000E-001	7.03838E-005	9	...........
	13593	271.88	-2.82830E-001	-2.08534E-006	0.00000E+000	-2.83000E-001	5.43707E-005	9	...........
	13595	271.92	-2.80921E-001	-2.02596E-006	0.00000E+000	-2.81000E-001	5.53715E-005	9	...........
	13597	271.96	-2.79018E-001	-2.00410E-006	0.00000E+000	-2.79000E-001	7.31360E-005	9	...........
	13599	272	-2.76935E-001	-2.03930E-006	0.00000E+000	-2.77000E-001	7.25522E-005	9	...........
	13601	272.04	-2.75001E-001	-2.01962E-006	0.00000E+000	-2.75000E-001	7.80567E-005	9	...........
	13603	272.08	-2.73025E-001	-1.55171E-006	0.00000E+000	-2.73000E-001	7.41369E-005	9	...........
	13605	272.12	-2.71070E-001	-1.86932E-006	0.00000E+000	-2.71000E-001	7.19684E-005	9	...........
	13607	272.16	-2.69005E-001	-2.28735E-006	0.00000E+000	-2.69000E-001	6.94664E-005	9	...........
	13609	272.2	-2.66992E-001	-2.19694E-006	0.00000E+000	-2.67000E-001	6.95498E-005	9	...........
	13611	272.24	-2.65016E-001	-1.99743E-006	0.00000E+000	-2.65000E-001	7.03004E-005	9	...........
	13613	272.28	-2.63012E-001	-1.92937E-006	0.00000E+000	-2.63000E-001	7.31360E-005	9	...........
	13615	272.32	-2.60774E-001	-1.84980E-006	0.00000E+000	-2.61000E-001	5.06176E-005	9	...........
	13617	272.36	-2.58875E-001	-1.89417E-006	0.00000E+000	-2.59000E-001	5.58719E-005	9	...........
	13619	272.4	-2.57015E-001	-1.94088E-006	0.00000E+000	-2.57000E-001	7.24688E-005	9	...........
	13621	272.44	-2.55014E-001	-1.87432E-006	0.00000E+000	-2.55000E-001	7.20518E-005	9	...........
	13623	272.48	-2.52927E-001	-1.95640E-006	0.00000E+000	-2.53000E-001	6.53797E-005	9	...........
	13625	272.52	-2.51008E-001	-1.48682E-006	0.00000E+000	-2.51000E-001	7.24688E-005	9	...........
	13627	272.56	-2.49047E-001	-1.52952E-006	0.00000E+000	-2.49000E-001	6.26274E-005	9	...........
	13629	272.6	-2.47056E-001	-2.02079E-006	0.00000E+000	-2.47000E-001	6.39619E-005	9	...........
	13631	272.64	-2.44989E-001	-1.96674E-006	0.00000E+000	-2.45000E-001	6.34615E-005	9	...........
	13633	272.68	-2.42975E-001	-1.92353E-006	0.00000E+000	-2.43000E-001	7.30526E-005	9	...........
	13635	272.72	-2.40929E-001	-1.66531E-006	0.00000E+000	-2.41000E-001	5.67893E-005	9	...........
	13637	272.76	-2.39031E-001	-1.77123E-006	0.00000E+000	-2.39000E-001	6.83821E-005	9	...........
	13639	272.8	-2.36900E-001	-1.63478E-006	0.00000E+000	-2.37000E-001	6.82987E-005	9	...........
	13641	272.84	-2.35006E-001	-1.74188E-006	0.00000E+000	-2.35000E-001	7.07174E-005	9	...........
	13643	272.88	-2.33017E-001	-1.67949E-006	0.00000E+000	-2.33000E-001	6.83821E-005	9	...........
	13645	272.92	-2.31034E-001	-1.36455E-006	0.00000E+000	-2.31000E-001	6.48793E-005	9	...........
	13647	272.96	-2.28902E-001	-1.94188E-006	0.00000E+000	-2.29000E-001	6.64639E-005	9	...........
	13649	273	-2.27023E-001	-1.95723E-006	0.00000E+000	-2.27000E-001	6.43789E-005	9	...........
	13651	273.04	-2.25021E-001	-1.89417E-006	0.00000E+000	-2.25000E-001	6.46291E-005	9	...........
	13653	273.08	-2.22928E-001	-1.57173E-006	0.00000E+000	-2.23000E-001	6.00420E-005	9	...........
	13655	273.12	-2.20933E-001	-1.51735E-006	0.00000E+000	-2.21000E-001	5.35367E-005	9	...........
	13657	273.16	-2.19080E-001	-1.58657E-006	0.00000E+000	-2.19000E-001	7.23854E-005	9	...........
	13659	273.2	-2.17095E-001	-1.60392E-006	0.00000E+000	-2.17000E-001	6.46291E-005	9	...........
	13661	273.24	-2.15130E-001	-1.63311E-006	0.00000E+000	-2.15000E-001	6.88826E-005	9	...........
	13663	273.28	-2.13056E-001	-1.58958E-006	0.00000E+000	-2.13000E-001	6.67141E-005	9	...........
	13665	273.32	-2.11040E-001	-1.32284E-006	0.00000E+000	-2.11000E-001	7.07174E-005	9	...........
	13667	273.36	-2.09034E-001	-1.14719E-006	0.00000E+000	-2.09000E-001	6.74647E-005	9	...........
	13669	273.4	-2.07051E-001	-1.78475E-006	0.00000E+000	-2.07000E-001	7.16348E-005	9	...........
	13671	273.44	-2.04961E-001	-1.64129E-006	0.00000E+000	-2.05000E-001	6.58801E-005	9	...........
	13673	273.48	-2.03053E-001	-1.61660E-006	0.00000E+000	-2.03000E-001	6.63805E-005	9	...........
	13675	273.52	-2.00977E-001	-1.31450E-006	0.00000E+000	-2.01000E-001	5.17018E-005	9	...........
	13677	273.56	-1.99069E-001	-1.36605E-006	0.00000E+000	-1.99000E-001	6.17934E-005	9	...........
	13679	273.6	-1.97112E-001	-1.37672E-006	0.00000E+000	-1.97000E-001	7.05506E-005	9	...........
	13681	273.64	-1.95116E-001	-1.46046E-006	0.00000E+000	-1.95000E-001	7.05506E-005	9	...........
	13683	273.68	-1.93133E-001	-1.47865E-006	0.00000E+000	-1.93000E-001	6.42121E-005	9	...........
	13685	273.72	-1.91193E-001	-9.63031E-007	0.00000E+000	-1.91000E-001	6.02922E-005	9	...........
	13687	273.76	-1.89016E-001	-1.54354E-006	0.00000E+000	-1.89000E-001	6.22104E-005	9	...........
	13689	273.8	-1.87074E-001	-1.69767E-006	0.00000E+000	-1.87000E-001	6.64639E-005	9	...........
	13691	273.84	-1.85103E-001	-1.38006E-006	0.00000E+000	-1.85000E-001	6.57133E-005	9	...........
	13693	273.88	-1.83126E-001	-1.39274E-006	0.00000E+000	-1.83000E-001	6.90494E-005	9	...........
	13695	273.92	-1.81020E-001	-1.44912E-006	0.00000E+000	-1.81000E-001	6.47959E-005	9	...........
	13697	273.96	-1.79077E-001	-1.50083E-006	0.00000E+000	-1.79000E-001	6.69643E-005	9	...........
	13699	274	-1.77001E-001	-1.11099E-006	0.00000E+000	-1.77000E-001	5.28695E-005	9	...........
	13701	274.04	-1.75069E-001	-1.22226E-006	0.00000E+000	-1.75000E-001	5.53715E-005	9	...........
	13703	274.08	-1.73138E-001	-1.24411E-006	0.00000E+000	-1.73000E-001	6.38785E-005	9	...........
	13705	274.12	-1.71128E-001	-1.27397E-006	0.00000E+000	-1.71000E-001	6.58801E-005	9	...........
	13707	274.16	-1.69141E-001	-1.23277E-006	0.00000E+000	-1.69000E-001	6.82987E-005	9	...........
	13709	274.2	-1.67167E-001	-8.34252E-007	0.00000E+000	-1.67000E-001	7.01336E-005	9	...........
	13711	274.24	-1.65110E-001	-1.16471E-006	0.00000E+000	-1.65000E-001	6.25440E-005	9	...........
	13713	274.28	-1.63103E-001	-1.49599E-006	0.00000E+000	-1.63000E-001	6.33781E-005	9	...........
	13715	274.32	-1.61118E-001	-1.17538E-006	0.00000E+000	-1.61000E-001	6.24606E-005	9	...........
	13717	274.36	-1.59140E-001	-1.29065E-006	0.00000E+000	-1.59000E-001	6.05424E-005	9	...........
	13719	274.4	-1.57041E-001	-1.10933E-006	0.00000E+000	-1.57000E-001	5.62889E-005	9	...........
	13721	274.44	-1.54980E-001	-9.50020E-007	0.00000E+000	-1.55000E-001	5.97084E-005	9	...........
	13723	274.48	-1.53142E-001	-1.05111E-006	0.00000E+000	-1.53000E-001	6.87158E-005	9	...........
	13725	274.52	-1.51169E-001	-1.11350E-006	0.00000E+000	-1.51000E-001	6.89660E-005	9	...........
	13727	274.56	-1.49158E-001	-1.14636E-006	0.00000E+000	-1.49000E-001	6.52963E-005	9	...........
	13729	274.6	-1.47121E-001	-8.43760E-007	0.00000E+000	-1.47000E-001	7.20518E-005	9	...........
	13731	274.64	-1.45142E-001	-6.76281E-007	0.00000E+000	-1.45000E-001	6.74647E-005	9	...........
	13733	274.68	-1.43158E-001	-1.38924E-006	0.00000E+000	-1.43000E-001	6.33781E-005	9	...........
	13735	274.72	-1.41148E-001	-1.17889E-006	0.00000E+000	-1.41000E-001	5.96250E-005	9	...........
	13737	274.76	-1.39094E-001	-1.22309E-006	0.00000E+000	-1.39000E-001	6.88826E-005	9	...........
	13739	274.8	-1.37013E-001	-8.01390E-007	0.00000E+000	-1.37000E-001	4.76152E-005	9	...........
	13741	274.84	-1.35182E-001	-9.24331E-007	0.00000E+000	-1.35000E-001	6.39619E-005	9	...........
	13743	274.88	-1.33080E-001	-9.17491E-007	0.00000E+000	-1.33000E-001	6.73813E-005	9	...........
	13745	274.92	-1.31122E-001	-8.77456E-007	0.00000E+000	-1.31000E-001	6.54631E-005	9	...........
	13747	274.96	-1.29131E-001	-1.02408E-006	0.00000E+000	-1.29000E-001	5.82072E-005	9	...........
	13749	275	-1.27207E-001	-5.23815E-007	0.00000E+000	-1.27000E-001	6.01254E-005	9	...........
	13751	275.04	-1.25142E-001	-5.47169E-007	0.00000E+000	-1.25000E-001	6.21270E-005	9	...........
	13753	275.08	-1.23151E-001	-1.15937E-006	0.00000E+000	-1.23000E-001	6.19602E-005	9	...........
	13755	275.12	-1.21151E-001	-1.01441E-006	0.00000E+000	-1.21000E-001	6.13764E-005	9	...........
	13757	275.16	-1.19186E-001	-1.01758E-006	0.00000E+000	-1.19000E-001	6.43789E-005	9	...........
	13759	275.2	-1.17051E-001	-6.63437E-007	0.00000E+000	-1.17000E-001	5.05342E-005	9	...........
	13761	275.24	-1.15189E-001	-8.29415E-007	0.00000E+000	-1.15000E-001	6.56299E-005	9	...........
	13763	275.28	-1.13205E-001	-8.14902E-007	0.00000E+000	-1.13000E-001	6.70477E-005	9	...........
	13765	275.32	-1.11284E-001	-7.91548E-007	0.00000E+000	-1.11000E-001	6.67975E-005	9	...........
	13767	275.36	-1.09204E-001	-8.69116E-007	0.00000E+000	-1.09000E-001	6.09594E-005	9	...........
	13769	275.4	-1.07146E-001	-8.63444E-007	0.00000E+000	-1.07000E-001	6.57967E-005	9	...........
	13771	275.44	-1.05152E-001	-3.11130E-007	0.00000E+000	-1.05000E-001	6.22104E-005	9	...........
	13773	275.48	-1.03200E-001	-8.87132E-007	0.00000E+000	-1.03000E-001	6.72145E-005	9	...........
	13775	275.52	-1.01214E-001	-9.82214E-007	0.00000E+000	-1.01000E-001	6.27108E-005	9	...........
	13777	275.56	-9.91592E-002	-8.41925E-007	0.00000E+000	-9.90000E-002	6.29610E-005	9	...........
	13779	275.6	-9.71020E-002	-5.71357E-007	0.00000E+000	-9.70000E-002	5.47877E-005	9	...........
	13781	275.64	-9.50908E-002	-5.54342E-007	0.00000E+000	-9.50000E-002	5.18686E-005	9	...........
	13783	275.68	-9.32397E-002	-6.82620E-007	0.00000E+000	-9.30000E-002	6.35449E-005	9	...........
	13785	275.72	-9.12329E-002	-7.12313E-007	0.00000E+000	-9.10000E-002	6.56299E-005	9	...........
	13787	275.76	-8.92819E-002	-7.73366E-007	0.00000E+000	-8.90000E-002	5.73731E-005	9	...........
	13789	275.8	-8.72418E-002	-1.69340E-007	0.00000E+000	-8.70000E-002	6.37117E-005	9	...........
	13791	275.84	-8.51952E-002	-3.60173E-007	0.00000E+000	-8.50000E-002	5.75399E-005	9	...........
	13793	275.88	-8.31572E-002	-9.61196E-007	0.00000E+000	-8.30000E-002	5.75399E-005	9	...........
	13795	275.92	-8.11664E-002	-9.19660E-007	0.00000E+000	-8.10000E-002	5.92080E-005	9	...........
	13797	275.96	-7.92145E-002	-7.41505E-007	0.00000E+000	-7.90000E-002	6.59635E-005	9	...........
	13799	276	-7.69958E-002	-3.72684E-007	0.00000E+000	-7.70000E-002	4.99504E-005	9	...........
	13801	276.04	-7.50861E-002	-4.22394E-007	0.00000E+000	-7.50000E-002	5.81238E-005	9	...........
	13803	276.08	-7.32067E-002	-6.05219E-007	0.00000E+000	-7.30000E-002	6.73813E-005	9	...........
	13805	276.12	-7.12687E-002	-6.44420E-007	0.00000E+000	-7.10000E-002	7.07174E-005	9	...........
	13807	276.16	-6.92392E-002	-6.17897E-007	0.00000E+000	-6.90000E-002	6.77983E-005	9	...........
	13809	276.2	-6.71919E-002	-2.92180E-008	0.00000E+000	-6.70000E-002	6.32947E-005	9	...........
	13811	276.24	-6.52367E-002	-3.13632E-007	0.00000E+000	-6.50000E-002	5.90412E-005	9	...........
	13813	276.28	-6.33529E-002	-7.32831E-007	0.00000E+000	-6.30000E-002	6.72145E-005	9	...........
	13815	276.32	-6.12988E-002	-5.13306E-007	0.00000E+000	-6.10000E-002	5.96250E-005	9	...........
	13817	276.36	-5.92817E-002	-4.75940E-007	0.00000E+000	-5.90000E-002	6.44623E-005	9	...........
	13819	276.4	-5.72261E-002	-4.97459E-007	0.00000E+000	-5.70000E-002	6.05424E-005	9	...........
	13821	276.44	-5.52635E-002	-4.72938E-007	0.00000E+000	-5.50000E-002	6.33781E-005	9	...........
	13823	276.48	-5.32165E-002	-4.88618E-007	0.00000E+000	-5.30000E-002	6.51295E-005	9	...........
	13825	276.52	-5.10741E-002	-1.42984E-007	0.00000E+000	-5.10000E-002	5.52047E-005	9	...........
	13827	276.56	-4.90628E-002	-1.04784E-007	0.00000E+000	-4.90000E-002	5.37869E-005	9	...........
	13829	276.6	-4.72700E-002	-3.47495E-007	0.00000E+000	-4.70000E-002	6.79651E-005	9	...........
	13831	276.64	-4.52385E-002	-2.90946E-007	0.00000E+000	-4.50000E-002	6.36283E-005	9	...........
	13833	276.68	-4.32150E-002	-4.27398E-007	0.00000E+000	-4.30000E-002	6.76315E-005	9	...........
	13835	276.72	-4.12426E-002	-4.31235E-007	0.00000E+000	-4.10000E-002	6.73813E-005	9	...........
	13837	276.76	-3.92421E-002	2.53195E-007	0.00000E+000	-3.90000E-002	6.82153E-005	9	...........
	13839	276.8	-3.71850E-002	9.98944E-008	0.00000E+000	-3.70000E-002	6.87158E-005	9	...........
	13841	276.84	-3.51898E-002	-2.80937E-007	0.00000E+000	-3.50000E-002	6.53797E-005	9	...........
	13843	276.88	-3.32105E-002	-4.02543E-007	0.00000E+000	-3.30000E-002	6.13764E-005	9	...........
	13845	276.92	-3.12976E-002	-5.19311E-007	0.00000E+000	-3.10000E-002	7.11344E-005	9	...........
	13847	276.96	-2.91942E-002	-2.99620E-007	0.00000E+000	-2.90000E-002	6.55465E-005	9	...........
	13849	277	-2.71071E-002	-6.85856E-008	0.00000E+000	-2.70000E-002	6.28776E-005	9	...........
	13851	277.04	-2.50888E-002	1.10570E-007	0.00000E+000	-2.50000E-002	5.28695E-005	9	...........
	13853	277.08	-2.33007E-002	-2.11043E-007	0.00000E+000	-2.30000E-002	7.29692E-005	9	...........
	13855	277.12	-2.12793E-002	-1.69840E-007	0.00000E+000	-2.10000E-002	6.32947E-005	9	...........
	13857	277.16	-1.92131E-002	-2.38400E-007	0.00000E+000	-1.90000E-002	6.51295E-005	9	...........
	13859	277.2	-1.72411E-002	2.08656E-007	0.00000E+000	-1.70000E-002	6.52129E-005	9	...........
	13861	277.24	-1.52364E-002	4.66213E-007	0.00000E+000	-1.50000E-002	6.92996E-005	9	...........
	13863	277.28	-1.32777E-002	-3.46828E-007	0.00000E+000	-1.30000E-002	6.04590E-005	9	...........
	13865	277.32	-1.12326E-002	-1.47488E-007	0.00000E+000	-1.10000E-002	6.74647E-005	9	...........
	13867	277.36	-9.27654E-003	-6.82519E-008	0.00000E+000	-9.00000E-003	6.19602E-005	9	...........
	13869	277.4	-7.32987E-003	-5.30721E-008	0.00000E+000	-7.00000E-003	6.69643E-005	9	...........
	13871	277.44	-5.17294E-003	-1.09454E-007	0.00000E+000	-5.00000E-003	6.23772E-005	9	...........
	13873	277.48	-3.19332E-003	-6.09122E-008	0.00000E+000	-3.00000E-003	6.65473E-005	9	...........
	13875	277.52	-1.11262E-003	2.97900E-007	0.00000E+000	-9.99995E-004	5.73731E-005	9	...........
	13877	277.56	8.18048E-004	3.46442E-007	0.00000E+000	1.00000E-003	5.30363E-005	9	...........
	13879	277.6	2.60359E-003	-2.73830E-008	0.00000E+000	3.00001E-003	7.10510E-005	9	...........
	13881	277.64	4.76436E-003	2.94998E-008	0.00000E+000	5.00000E-003	6.57967E-005	9	...........
	13883	277.68	6.65107E-003	-5.27384E-008	0.00000E+000	7.00001E-003	7.55547E-005	9	...........
	13885	277.72	8.62735E-003	-8.40991E-008	0.00000E+000	9.00000E-003	6.99668E-005	9	...........
	13887	277.76	1.06357E-002	5.16424E-007	0.00000E+000	1.10000E-002	7.03838E-005	9	...........
	13889	277.8	1.27307E-002	5.20427E-007	0.00000E+000	1.30000E-002	6.43789E-005	9	...........
	13891	277.84	1.46892E-002	-1.85688E-007	0.00000E+000	1.50000E-002	6.51295E-005	9	...........
	13893	277.88	1.66084E-002	6.46971E-008	0.00000E+000	1.70000E-002	7.22186E-005	9	...........
	13895	277.92	1.86660E-002	7.83757E-008	0.00000E+000	1.90000E-002	6.41287E-005	9	...........
	13897	277.96	2.08206E-002	1.96312E-007	0.00000E+000	2.10000E-002	5.70395E-005	9	...........
	13899	278	2.28347E-002	5.59128E-007	0.00000E+000	2.30000E-002	4.91998E-005	9	...........
	13901	278.04	2.46254E-002	1.49771E-007	0.00000E+000	2.50000E-002	7.33028E-005	9	...........
	13903	278.08	2.66252E-002	1.63950E-007	0.00000E+000	2.70000E-002	7.10510E-005	9	...........
	13905	278.12	2.87909E-002	1.39262E-007	0.00000E+000	2.90000E-002	6.09594E-005	9	...........
	13907	278.16	3.06551E-002	4.92069E-007	0.00000E+000	3.10000E-002	6.47959E-005	9	...........
	13909	278.2	3.26414E-002	8.62725E-007	0.00000E+000	3.30000E-002	6.57967E-005	9	...........
	13911	278.24	3.46339E-002	9.14877E-009	0.00000E+000	3.50000E-002	5.75399E-005	9	...........
	13913	278.28	3.67528E-002	1.85469E-007	0.00000E+000	3.70000E-002	6.07092E-005	9	...........
	13915	278.32	3.86207E-002	2.33678E-007	0.00000E+000	3.90000E-002	6.66307E-005	9	...........
	13917	278.36	4.06109E-002	2.43686E-007	0.00000E+000	4.10000E-002	6.64639E-005	9	...........
	13919	278.4	4.27439E-002	5.13088E-007	0.00000E+000	4.30000E-002	5.62055E-005	9	...........
	13921	278.44	4.48875E-002	6.98749E-007	0.00000E+000	4.50000E-002	5.13682E-005	9	...........
	13923	278.48	4.66395E-002	3.21754E-007	0.00000E+000	4.70000E-002	6.59635E-005	9	...........
	13925	278.52	4.86178E-002	2.85556E-007	0.00000E+000	4.90000E-002	6.66307E-005	9	...........
	13927	278.56	5.06330E-002	2.45021E-007	0.00000E+000	5.10000E-002	6.07926E-005	9	...........
	13929	278.6	5.28002E-002	7.92164E-007	0.00000E+000	5.30000E-002	6.28776E-005	9	...........
	13931	278.64	5.46628E-002	1.01736E-006	0.00000E+000	5.50000E-002	6.53797E-005	9	...........
	13933	278.68	5.66224E-002	2.01483E-007	0.00000E+000	5.70000E-002	6.30444E-005	9	...........
	13935	278.72	5.86591E-002	3.93317E-007	0.00000E+000	5.90000E-002	6.55465E-005	9	...........
	13937	278.76	6.07840E-002	5.14756E-007	0.00000E+000	6.10000E-002	5.82906E-005	9	...........
	13939	278.8	6.28341E-002	8.90249E-007	0.00000E+000	6.30000E-002	4.93666E-005	9	...........
	13941	278.84	6.46373E-002	6.10506E-007	0.00000E+000	6.50000E-002	6.67975E-005	9	...........
	13943	278.88	6.66206E-002	5.02078E-007	0.00000E+000	6.70000E-002	7.05506E-005	9	...........
	13945	278.92	6.87838E-002	5.32271E-007	0.00000E+000	6.90000E-002	6.36283E-005	9	...........
	13947	278.96	7.06425E-002	5.19927E-007	0.00000E+000	7.10000E-002	6.75481E-005	9	...........
	13949	279	7.26123E-002	1.11761E-006	0.00000E+000	7.30000E-002	6.48793E-005	9	...........
	13951	279.04	7.46490E-002	1.05973E-006	0.00000E+000	7.50000E-002	6.37117E-005	9	...........
	13953	279.08	7.67982E-002	3.50446E-007	0.00000E+000	7.70000E-002	6.37951E-005	9	...........
	13955	279.12	7.86507E-002	5.95659E-007	0.00000E+000	7.90000E-002	6.58801E-005	9	...........
	13957	279.16	8.06228E-002	6.05668E-007	0.00000E+000	8.10000E-002	5.92914E-005	9	...........
	13959	279.2	8.28026E-002	9.82329E-007	0.00000E+000	8.30000E-002	5.61221E-005	9	...........
	13961	279.24	8.47756E-002	6.20014E-007	0.00000E+000	8.50000E-002	5.91246E-005	9	...........
	13963	279.28	8.66338E-002	5.73807E-007	0.00000E+000	8.70000E-002	6.42121E-005	9	...........
	13965	279.32	8.86302E-002	5.72473E-007	0.00000E+000	8.90000E-002	6.52129E-005	9	...........
	13967	279.36	9.06364E-002	5.82314E-007	0.00000E+000	9.10000E-002	6.51295E-005	9	...........
	13969	279.4	9.27953E-002	6.87406E-007	0.00000E+000	9.30000E-002	5.93748E-005	9	...........
	13971	279.44	9.46328E-002	1.26758E-006	0.00000E+000	9.50000E-002	6.52963E-005	9	...........
	13973	279.48	9.66036E-002	1.16015E-006	0.00000E+000	9.70000E-002	6.42955E-005	9	...........
	13975	279.52	9.86183E-002	5.45616E-007	0.00000E+000	9.90000E-002	7.09676E-005	9	...........
	13977	279.56	1.00795E-001	7.74482E-007	0.00000E+000	1.01000E-001	6.55465E-005	9	...........
	13979	279.6	1.02630E-001	7.95500E-007	0.00000E+000	1.03000E-001	6.82987E-005	9	...........
	13981	279.64	1.04705E-001	1.23855E-006	0.00000E+000	1.05000E-001	5.72897E-005	9	...........
	13983	279.68	1.06601E-001	7.92164E-007	0.00000E+000	1.07000E-001	7.28858E-005	9	...........
	13985	279.72	1.08708E-001	7.85158E-007	0.00000E+000	1.09000E-001	5.97918E-005	9	...........
	13987	279.76	1.10608E-001	7.46124E-007	0.00000E+000	1.11000E-001	7.27190E-005	9	...........
	13989	279.8	1.12600E-001	8.32866E-007	0.00000E+000	1.13000E-001	7.06340E-005	9	...........
	13991	279.84	1.14583E-001	1.37734E-006	0.00000E+000	1.15000E-001	7.60551E-005	9	...........
	13993	279.88	1.16801E-001	5.92990E-007	0.00000E+000	1.17000E-001	6.25440E-005	9	...........
	13995	279.92	1.18610E-001	7.19434E-007	0.00000E+000	1.19000E-001	6.67141E-005	9	...........
	13997	279.96	1.20584E-001	9.11267E-007	0.00000E+000	1.21000E-001	6.02922E-005	9	...........
	13999	280	1.22652E-001	9.46965E-007	0.00000E+000	1.23000E-001	6.64639E-005	9	...........
	14000	280.02	1.23705E-001	1.21837E-006	0.00000E+000	1.24000E-001	5.05342E-005	9	...........