File: 20191129/matning1/CVTESTKRISTALL5BOX5_2.DTA
EXPLAIN
TAG	CV
TITLE	LABEL	CV	Test &Identifier
DATE	LABEL	11/29/2019	Date
TIME	LABEL	15:00:02	Time
NOTES	NOTES	1	&Notes...

PSTAT	PSTAT	REF600-16093	Potentiostat
VINIT	POTEN	0.00000E+000	T	Initial &E (V)
VLIMIT1	POTEN	1.50000E+000	F	Scan Limit &1 (V)
VLIMIT2	POTEN	2.00000E-001	F	Scan Limit &2 (V)
VFINAL	POTEN	0.00000E+000	T	Final &E (V)
SCANRATE	QUANT	4.99999E+001	&Scan Rate (mV/s)
STEPSIZE	QUANT	1.00000E+000	St&ep Size (mV)
CYCLES	IQUANT	5	C&ycles (#)
IMODE	SELECTOR	1	I/E Range &Mode
IRANGE	QUANT	1.50000E+001	&Max Current (mA)
AREA	QUANT	1.00000E+000	Electrode &Area (cm^2)
ELECTRODETYPE	SELECTOR	0	Electrode Type
STRIPPING	TOGGLE	F	Used for Stripping
POLARITY	TOGGLE	F	Signal Polarity
CONDIT	TWOPARAM	F	1.50000E+001	0.00000E+000	Conditionin&g	Time(s)	E(V)
DELAY	TWOPARAM	T	5.00000E+000	0.00000E+000	Init. De&lay	Time(s)	Stab.(mV/s)
EQDELAY	QUANT	3.00000E+000	Equil. &Time (s)
IRCOMP	SELECTOR	0	IRCom&p
PFCOR	QUANT	0.00000E+000	PF Corr. (ohm)
SAMPLINGMODE	SELECTOR	2	Sampling &Mode
OCVCURVE	TABLE	20
	Pt	T	Vf	Vm	Ach	Over
	#	s	V vs. Ref.	V	V	bits
	0	0.25	-2.80971E-001	-2.80971E-001	9.81416E-005	...........
	1	0.5	-2.81032E-001	-2.84148E-001	1.06892E-004	...........
	2	0.75	-2.81282E-001	-2.80713E-001	1.15225E-004	...........
	3	1	-2.81663E-001	-2.81855E-001	1.19766E-004	...........
	4	1.25	-2.81873E-001	-2.80379E-001	9.94749E-005	...........
	5	1.5	-2.81742E-001	-2.80763E-001	1.00392E-004	...........
	6	1.75	-2.81398E-001	-2.81132E-001	1.14183E-004	...........
	7	2	-2.81082E-001	-2.80985E-001	1.07100E-004	...........
	8	2.25	-2.80920E-001	-2.80242E-001	9.74750E-005	...........
	9	2.5	-2.80849E-001	-2.80908E-001	1.19058E-004	...........
	10	2.75	-2.80773E-001	-2.80335E-001	1.16725E-004	...........
	11	3	-2.80701E-001	-2.81424E-001	1.07891E-004	...........
	12	3.25	-2.80687E-001	-2.80259E-001	1.01225E-004	...........
	13	3.5	-2.80712E-001	-2.80320E-001	1.22266E-004	...........
	14	3.75	-2.80681E-001	-2.80268E-001	1.10725E-004	...........
	15	4	-2.80554E-001	-2.79806E-001	1.01683E-004	...........
	16	4.25	-2.80378E-001	-2.80321E-001	1.18850E-004	...........
	17	4.5	-2.80217E-001	-2.79672E-001	1.23516E-004	...........
	18	4.75	-2.80112E-001	-2.80824E-001	1.03433E-004	...........
	19	5	-2.80090E-001	-2.79828E-001	9.32667E-005	...........
EOC	QUANT	-0.2800901	Open Circuit (V)
PSTATMODEL	IQUANT	4	Pstat Model
PSTATSECTION	LABEL	REF600-16093	Pstat Section
PSTATSERIALNO	LABEL	16093	Pstat Serial Number
CTRLMODE	IQUANT	1	Control Mode
IESTAB	IQUANT	2	I/E Stability
CASPEED	IQUANT	2	Control Amp Speed
CONVENTION	IQUANT	1	Current Convention
ICHRANGE	IQUANT	2	Ich Range
ICHRANGEMODE	TOGGLE	F	Ich Auto Range
ICHOFFSETENABLE	TOGGLE	F	Ich Offset Enable
ICHOFFSET	QUANT	0	Ich Offset (V)
ICHFILTER	IQUANT	2	Ich Filter
VCHRANGE	IQUANT	2	Vch Range
VCHRANGEMODE	TOGGLE	F	Vch Auto Range
VCHOFFSETENABLE	TOGGLE	F	Vch Offset Enable
VCHOFFSET	QUANT	0	Vch Offset (V)
VCHFILTER	IQUANT	2	Vch Filter
ACHRANGE	IQUANT	2	Ach Range
ACHOFFSETENABLE	TOGGLE	F	Ach Offset Enable
ACHOFFSET	QUANT	0	Ach Offset (V)
ACHFILTER	IQUANT	1	Ach Filter
IERANGELOWERLIMIT	IQUANT	1	I/E Range Lower Limit
IERANGEMODE	TOGGLE	F	I/E AutoRange
IERANGE	IQUANT	10	I/E Range
POSFEEDENABLE	TOGGLE	F	Positive Feedback IR Comp
POSFEEDRESISTANCE	QUANT	0	Positive Feedback Resistance (ohm)
ACHSELECT	IQUANT	0	Ach Select
CABLEID	IQUANT	14	Cable ID
DCCALDATE	LABEL	11/5/2019	DC Calibration Date
ACCALDATE	LABEL		AC Calibration Date
THERMOSELECT	IQUANT	1	Thermo Select
FRAMEWORKVERSION	QUANT	6.12	Framework Version
INSTRUMENTVERSION	LABEL	3.11	Instrument Version
EXPERIMENTABORTED	TOGGLE	T	Experiment Aborted
CURVE	TABLE	1286
	Pt	T	Vf	Im	Vu	Sig	Ach	IERange	Over	Cycle
	#	s	V vs. Ref.	A	V	V	V	#	bits	#
	0	0.02	-2.80065E-001	-5.31221E-007	0.00000E+000	-2.80100E-001	1.52951E-004	10	...........	0
	3	0.08	-2.76820E-001	2.79501E-006	0.00000E+000	-2.77100E-001	1.42443E-004	10	...........	0
	6	0.14	-2.74053E-001	2.09263E-008	0.00000E+000	-2.74100E-001	1.59790E-004	10	...........	0
	9	0.2	-2.71120E-001	-2.52295E-006	0.00000E+000	-2.71100E-001	1.72717E-004	10	...........	0
	12	0.26	-2.68122E-001	-2.43288E-006	0.00000E+000	-2.68100E-001	1.75553E-004	10	...........	0
	15	0.32	-2.65091E-001	3.07843E-007	0.00000E+000	-2.65100E-001	1.72551E-004	10	...........	0
	18	0.38	-2.62036E-001	-2.69811E-006	0.00000E+000	-2.62100E-001	1.73969E-004	10	...........	0
	21	0.44	-2.59018E-001	-2.64473E-006	0.00000E+000	-2.59100E-001	1.75970E-004	10	...........	0
	24	0.5	-2.56099E-001	-1.34860E-006	0.00000E+000	-2.56100E-001	1.60457E-004	10	...........	0
	27	0.56	-2.52975E-001	3.31196E-007	0.00000E+000	-2.53100E-001	1.59457E-004	10	...........	0
	30	0.62	-2.49915E-001	2.00599E-006	0.00000E+000	-2.50100E-001	1.49532E-004	10	...........	0
	33	0.68	-2.47123E-001	-1.67555E-006	0.00000E+000	-2.47100E-001	1.76721E-004	10	...........	0
	36	0.74	-2.44132E-001	-1.66221E-006	0.00000E+000	-2.44100E-001	1.71633E-004	10	...........	0
	39	0.8	-2.41094E-001	5.93091E-007	0.00000E+000	-2.41100E-001	1.67547E-004	10	...........	0
	42	0.86	-2.38140E-001	-1.38530E-006	0.00000E+000	-2.38100E-001	1.77555E-004	10	...........	0
	45	0.92	-2.34944E-001	-1.66221E-006	0.00000E+000	-2.35100E-001	1.76387E-004	10	...........	0
	48	0.98	-2.32092E-001	-6.01282E-007	0.00000E+000	-2.32100E-001	1.60457E-004	10	...........	0
	51	1.04	-2.28858E-001	2.47139E-006	0.00000E+000	-2.29100E-001	1.52785E-004	10	...........	0
	54	1.1	-2.26013E-001	1.30204E-006	0.00000E+000	-2.26100E-001	1.61041E-004	10	...........	0
	57	1.16	-2.23148E-001	-1.44035E-006	0.00000E+000	-2.23100E-001	1.74719E-004	10	...........	0
	60	1.22	-2.20129E-001	-1.98749E-006	0.00000E+000	-2.20100E-001	1.78973E-004	10	...........	0
	63	1.28	-2.17134E-001	5.09685E-007	0.00000E+000	-2.17100E-001	1.68130E-004	10	...........	0
	66	1.34	-2.14053E-001	-2.21102E-006	0.00000E+000	-2.14100E-001	1.71133E-004	10	...........	0
	69	1.4	-2.10969E-001	-8.48164E-007	0.00000E+000	-2.11100E-001	1.61375E-004	10	...........	0
	72	1.46	-2.08174E-001	-2.93331E-006	0.00000E+000	-2.08100E-001	1.71133E-004	10	...........	0
	75	1.52	-2.04909E-001	1.24366E-006	0.00000E+000	-2.05100E-001	1.55036E-004	10	...........	0
	78	1.58	-2.01936E-001	3.26375E-006	0.00000E+000	-2.02100E-001	1.41942E-004	10	...........	0
	81	1.64	-1.99181E-001	-2.39618E-006	0.00000E+000	-1.99100E-001	1.72717E-004	10	...........	0
	84	1.7	-1.96169E-001	-2.08924E-006	0.00000E+000	-1.96100E-001	1.74135E-004	10	...........	0
	87	1.76	-1.93197E-001	-3.01021E-007	0.00000E+000	-1.93100E-001	1.71967E-004	10	...........	0
	90	1.82	-1.90056E-001	-8.18138E-007	0.00000E+000	-1.90100E-001	1.70632E-004	10	...........	0
	93	1.88	-1.87177E-001	-1.74228E-006	0.00000E+000	-1.87100E-001	1.75720E-004	10	...........	0
	96	1.94	-1.84137E-001	-4.61160E-007	0.00000E+000	-1.84100E-001	1.65378E-004	10	...........	0
	99	2	-1.81216E-001	-1.66054E-006	0.00000E+000	-1.81100E-001	1.73885E-004	10	...........	0
	102	2.06	-1.77966E-001	2.47973E-006	0.00000E+000	-1.78100E-001	1.52618E-004	10	...........	0
	105	2.12	-1.75160E-001	-1.32691E-006	0.00000E+000	-1.75100E-001	1.73552E-004	10	...........	0
	108	2.18	-1.72195E-001	-1.91242E-006	0.00000E+000	-1.72100E-001	1.75470E-004	10	...........	0
	111	2.24	-1.69187E-001	-1.65553E-006	0.00000E+000	-1.69100E-001	1.73385E-004	10	...........	0
	114	2.3	-1.66187E-001	8.58322E-007	0.00000E+000	-1.66100E-001	1.69465E-004	10	...........	0
	117	2.36	-1.63214E-001	-1.89908E-006	0.00000E+000	-1.63100E-001	1.70632E-004	10	...........	0
	120	2.42	-1.60201E-001	-4.96191E-007	0.00000E+000	-1.60100E-001	1.56871E-004	10	...........	0
	123	2.48	-1.57182E-001	-7.64758E-007	0.00000E+000	-1.57100E-001	1.67130E-004	10	...........	0
	126	2.54	-1.53929E-001	3.66243E-006	0.00000E+000	-1.54100E-001	1.42860E-004	10	...........	0
	129	2.6	-1.51198E-001	-1.88740E-006	0.00000E+000	-1.51100E-001	1.73802E-004	10	...........	0
	132	2.66	-1.48186E-001	-1.28021E-006	0.00000E+000	-1.48100E-001	1.76304E-004	10	...........	0
	135	2.72	-1.45185E-001	5.93091E-007	0.00000E+000	-1.45100E-001	1.72884E-004	10	...........	0
	138	2.78	-1.42212E-001	-1.34026E-006	0.00000E+000	-1.42100E-001	1.74969E-004	10	...........	0
	141	2.84	-1.39115E-001	-1.93411E-006	0.00000E+000	-1.39100E-001	1.62042E-004	10	...........	0
	144	2.9	-1.36174E-001	-7.23055E-007	0.00000E+000	-1.36100E-001	1.63960E-004	10	...........	0
	147	2.96	-1.33068E-001	6.88174E-007	0.00000E+000	-1.33100E-001	1.55787E-004	10	...........	0
	150	3.02	-1.30226E-001	-2.01918E-006	0.00000E+000	-1.30100E-001	1.79306E-004	10	...........	0
	153	3.08	-1.27218E-001	-1.89074E-006	0.00000E+000	-1.27100E-001	1.70132E-004	10	...........	0
	156	3.14	-1.24208E-001	-1.76563E-006	0.00000E+000	-1.24100E-001	1.75887E-004	10	...........	0
	159	3.2	-1.21203E-001	-2.17599E-006	0.00000E+000	-1.21100E-001	1.75970E-004	10	...........	0
	162	3.26	-1.18194E-001	6.51475E-007	0.00000E+000	-1.18100E-001	1.66045E-004	10	...........	0
	165	3.32	-1.15261E-001	-3.32715E-007	0.00000E+000	-1.15100E-001	1.67547E-004	10	...........	0
	168	3.38	-1.12285E-001	-2.14262E-006	0.00000E+000	-1.12100E-001	1.68547E-004	10	...........	0
	171	3.44	-1.09285E-001	-5.54575E-007	0.00000E+000	-1.09100E-001	1.59373E-004	10	...........	0
	174	3.5	-1.06175E-001	-1.00997E-006	0.00000E+000	-1.06100E-001	1.67797E-004	10	...........	0
	177	3.56	-1.02980E-001	2.94180E-006	0.00000E+000	-1.03100E-001	1.43694E-004	10	...........	0
	180	3.62	-1.00243E-001	-1.88573E-006	0.00000E+000	-1.00100E-001	1.74969E-004	10	...........	0
	183	3.68	-9.72274E-002	-2.13929E-006	0.00000E+000	-9.71000E-002	1.75386E-004	10	...........	0
	186	3.74	-9.42244E-002	3.11179E-007	0.00000E+000	-9.40999E-002	1.74219E-004	10	...........	0
	189	3.8	-9.13071E-002	-1.98415E-006	0.00000E+000	-9.11000E-002	1.69381E-004	10	...........	0
	192	3.86	-8.83152E-002	-1.27353E-006	0.00000E+000	-8.81000E-002	1.64127E-004	10	...........	0
	195	3.92	-8.52944E-002	2.51127E-007	0.00000E+000	-8.51000E-002	1.65378E-004	10	...........	0
	198	3.98	-8.21347E-002	9.25047E-007	0.00000E+000	-8.21000E-002	1.64127E-004	10	...........	0
	201	4.04	-7.92325E-002	-1.47704E-006	0.00000E+000	-7.91000E-002	1.73969E-004	10	...........	0
	204	4.1	-7.62632E-002	-1.17678E-006	0.00000E+000	-7.61000E-002	1.78389E-004	10	...........	0
	207	4.16	-7.32281E-002	-1.78398E-006	0.00000E+000	-7.31000E-002	1.71133E-004	10	...........	0
	210	4.22	-7.02017E-002	-1.68890E-006	0.00000E+000	-7.00999E-002	1.76387E-004	10	...........	0
	213	4.28	-6.72977E-002	9.59916E-008	0.00000E+000	-6.71000E-002	1.64794E-004	10	...........	0
	216	4.34	-6.43214E-002	-1.61049E-006	0.00000E+000	-6.41000E-002	1.75220E-004	10	...........	0
	219	4.4	-6.13794E-002	-1.43034E-006	0.00000E+000	-6.10999E-002	1.70883E-004	10	...........	0
	222	4.46	-5.81156E-002	1.32873E-006	0.00000E+000	-5.81000E-002	1.54703E-004	10	...........	0
	225	4.52	-5.52446E-002	-1.83402E-006	0.00000E+000	-5.51000E-002	1.74469E-004	10	...........	0
	228	4.58	-5.22618E-002	-1.28021E-006	0.00000E+000	-5.20999E-002	1.75970E-004	10	...........	0
	231	4.64	-4.92226E-002	-2.03253E-006	0.00000E+000	-4.91000E-002	1.74386E-004	10	...........	0
	234	4.7	-4.62555E-002	7.83257E-007	0.00000E+000	-4.61000E-002	1.64961E-004	10	...........	0
	237	4.76	-4.32927E-002	-1.61383E-006	0.00000E+000	-4.30999E-002	1.70132E-004	10	...........	0
	240	4.82	-4.03037E-002	-2.99353E-007	0.00000E+000	-4.01000E-002	1.61875E-004	10	...........	0
	243	4.88	-3.70193E-002	3.71081E-006	0.00000E+000	-3.71000E-002	1.41275E-004	10	...........	0
	246	4.94	-3.42681E-002	-1.55878E-006	0.00000E+000	-3.41000E-002	1.70132E-004	10	...........	0
	249	5	-3.12733E-002	-8.93203E-007	0.00000E+000	-3.11000E-002	1.71216E-004	10	...........	0
	252	5.06	-2.82452E-002	-1.64719E-006	0.00000E+000	-2.81000E-002	1.77555E-004	10	...........	0
	255	5.12	-2.52244E-002	5.96427E-007	0.00000E+000	-2.51000E-002	1.69465E-004	10	...........	0
	258	5.18	-2.22209E-002	-1.33025E-006	0.00000E+000	-2.21000E-002	1.75220E-004	10	...........	0
	261	5.24	-1.92926E-002	-2.22619E-007	0.00000E+000	-1.91000E-002	1.61792E-004	10	...........	0
	264	5.3	-1.60142E-002	3.56568E-006	0.00000E+000	-1.61000E-002	1.43360E-004	10	...........	0
	267	5.36	-1.33018E-002	-6.31308E-007	0.00000E+000	-1.31000E-002	1.68631E-004	10	...........	0
	270	5.42	-1.03177E-002	-1.09838E-006	0.00000E+000	-1.00999E-002	1.73385E-004	10	...........	0
	273	5.48	-7.28040E-003	-1.37696E-006	0.00000E+000	-7.09999E-003	1.70966E-004	10	...........	0
	276	5.54	-4.27327E-003	1.39379E-006	0.00000E+000	-4.09997E-003	1.71967E-004	10	...........	0
	279	5.6	-1.25538E-003	-9.63264E-007	0.00000E+000	-1.09994E-003	1.65962E-004	10	...........	0
	282	5.66	1.74265E-003	-9.58421E-008	0.00000E+000	1.90002E-003	1.60874E-004	10	...........	0
	285	5.72	4.81416E-003	2.42469E-006	0.00000E+000	4.90004E-003	1.48364E-004	10	...........	0
	288	5.78	7.77550E-003	1.70906E-006	0.00000E+000	7.90006E-003	1.56955E-004	10	...........	0
	291	5.84	1.05821E-002	-8.43159E-007	0.00000E+000	1.09000E-002	1.74803E-004	10	...........	0
	294	5.9	1.35496E-002	-9.43247E-007	0.00000E+000	1.39000E-002	1.65962E-004	10	...........	0
	297	5.96	1.66404E-002	1.46051E-006	0.00000E+000	1.69000E-002	1.70799E-004	10	...........	0
	300	6.02	1.96311E-002	-2.67658E-007	0.00000E+000	1.99000E-002	1.74386E-004	10	...........	0
	303	6.08	2.27591E-002	7.13196E-007	0.00000E+000	2.29000E-002	1.60457E-004	10	...........	0
	306	6.14	2.58997E-002	3.76919E-006	0.00000E+000	2.59000E-002	1.43527E-004	10	...........	0
	309	6.2	2.85821E-002	-1.32525E-006	0.00000E+000	2.89000E-002	1.72050E-004	10	...........	0
	312	6.26	3.15642E-002	-1.67722E-006	0.00000E+000	3.19000E-002	1.72968E-004	10	...........	0
	315	6.32	3.45909E-002	-1.49539E-006	0.00000E+000	3.49000E-002	1.72968E-004	10	...........	0
	318	6.38	3.75941E-002	5.56392E-007	0.00000E+000	3.79000E-002	1.69632E-004	10	...........	0
	321	6.44	4.06336E-002	-1.26186E-006	0.00000E+000	4.09001E-002	1.75553E-004	10	...........	0
	324	6.5	4.36353E-002	3.79572E-007	0.00000E+000	4.39000E-002	1.61625E-004	10	...........	0
	327	6.56	4.69435E-002	3.90931E-006	0.00000E+000	4.69000E-002	1.41692E-004	10	...........	0
	330	6.62	4.96332E-002	-1.59214E-006	0.00000E+000	4.99001E-002	1.76054E-004	10	...........	0
	333	6.68	5.25933E-002	-1.70391E-006	0.00000E+000	5.29000E-002	1.70382E-004	10	...........	0
	336	6.74	5.55674E-002	-1.40198E-006	0.00000E+000	5.59000E-002	1.68381E-004	10	...........	0
	339	6.8	5.85781E-002	7.98270E-007	0.00000E+000	5.89000E-002	1.68214E-004	10	...........	0
	342	6.86	6.16061E-002	-1.33359E-006	0.00000E+000	6.19000E-002	1.72968E-004	10	...........	0
	345	6.92	6.45866E-002	-7.36400E-007	0.00000E+000	6.49000E-002	1.56538E-004	10	...........	0
	348	6.98	6.79294E-002	4.18956E-006	0.00000E+000	6.79000E-002	1.36605E-004	10	...........	0
	351	7.04	7.07514E-002	-1.47037E-006	0.00000E+000	7.09000E-002	1.70966E-004	10	...........	0
	354	7.1	7.36500E-002	-1.05668E-006	0.00000E+000	7.39000E-002	1.71800E-004	10	...........	0
	357	7.16	7.66017E-002	-1.61550E-006	0.00000E+000	7.69000E-002	1.71049E-004	10	...........	0
	360	7.22	7.95221E-002	-1.68890E-006	0.00000E+000	7.99000E-002	1.73135E-004	10	...........	0
	363	7.28	8.25688E-002	-8.33151E-007	0.00000E+000	8.29000E-002	1.71800E-004	10	...........	0
	366	7.34	8.55775E-002	1.15024E-006	0.00000E+000	8.59000E-002	1.65128E-004	10	...........	0
	369	7.4	8.85719E-002	-9.04880E-007	0.00000E+000	8.89000E-002	1.75053E-004	10	...........	0
	372	7.46	9.16058E-002	7.09697E-008	0.00000E+000	9.19001E-002	1.54286E-004	10	...........	0
	375	7.52	9.48889E-002	3.98771E-006	0.00000E+000	9.49000E-002	1.41692E-004	10	...........	0
	378	7.58	9.76826E-002	-9.69936E-007	0.00000E+000	9.79000E-002	1.71049E-004	10	...........	0
	381	7.64	1.00572E-001	-1.68056E-006	0.00000E+000	1.00900E-001	1.75053E-004	10	...........	0
	384	7.7	1.03447E-001	-2.06756E-006	0.00000E+000	1.03900E-001	1.74552E-004	10	...........	0
	387	7.76	1.06541E-001	7.44890E-007	0.00000E+000	1.06900E-001	1.68881E-004	10	...........	0
	390	7.82	1.09557E-001	-1.18846E-006	0.00000E+000	1.09900E-001	1.67463E-004	10	...........	0
	393	7.88	1.12578E-001	-2.91173E-008	0.00000E+000	1.12900E-001	1.61125E-004	10	...........	0
	396	7.94	1.15764E-001	3.03689E-006	0.00000E+000	1.15900E-001	1.40858E-004	10	...........	0
	399	8	1.18752E-001	-1.09505E-006	0.00000E+000	1.18900E-001	1.68130E-004	10	...........	0
	402	8.06	1.21578E-001	-1.44035E-006	0.00000E+000	1.21900E-001	1.69715E-004	10	...........	0
	405	8.12	1.24552E-001	-1.09171E-006	0.00000E+000	1.24900E-001	1.73051E-004	10	...........	0
	408	8.18	1.27482E-001	1.13523E-006	0.00000E+000	1.27900E-001	1.73051E-004	10	...........	0
	411	8.24	1.30533E-001	-7.16382E-007	0.00000E+000	1.30900E-001	1.74552E-004	10	...........	0
	414	8.3	1.33563E-001	4.69650E-007	0.00000E+000	1.33900E-001	1.59790E-004	10	...........	0
	417	8.36	1.36808E-001	4.19790E-006	0.00000E+000	1.36900E-001	1.50032E-004	10	...........	0
	420	8.42	1.39544E-001	-1.02498E-006	0.00000E+000	1.39900E-001	1.72884E-004	10	...........	0
	423	8.48	1.42738E-001	-1.31691E-006	0.00000E+000	1.42900E-001	1.68547E-004	10	...........	0
	426	8.54	1.45537E-001	-1.22683E-006	0.00000E+000	1.45900E-001	1.73635E-004	10	...........	0
	429	8.6	1.48514E-001	3.42712E-008	0.00000E+000	1.48900E-001	1.68547E-004	10	...........	0
	432	8.66	1.51427E-001	-9.28233E-007	0.00000E+000	1.51900E-001	1.72634E-004	10	...........	0
	435	8.72	1.54538E-001	-8.01456E-007	0.00000E+000	1.54900E-001	1.69882E-004	10	...........	0
	438	8.78	1.57767E-001	3.02688E-006	0.00000E+000	1.57900E-001	1.43277E-004	10	...........	0
	441	8.84	1.60530E-001	-1.12007E-006	0.00000E+000	1.60900E-001	1.77054E-004	10	...........	0
	444	8.9	1.63562E-001	-4.81178E-007	0.00000E+000	1.63900E-001	1.69465E-004	10	...........	0
	447	8.96	1.66543E-001	1.49371E-007	0.00000E+000	1.66900E-001	1.68881E-004	10	...........	0
	450	9.02	1.69527E-001	1.09186E-006	0.00000E+000	1.69900E-001	1.72301E-004	10	...........	0
	453	9.08	1.72485E-001	-1.08003E-006	0.00000E+000	1.72900E-001	1.71049E-004	10	...........	0
	456	9.14	1.75411E-001	-1.11339E-006	0.00000E+000	1.75900E-001	1.72384E-004	10	...........	0
	459	9.2	1.78540E-001	-1.20864E-007	0.00000E+000	1.78900E-001	1.61208E-004	10	...........	0
	462	9.26	1.81537E-001	-2.87676E-007	0.00000E+000	1.81900E-001	1.61208E-004	10	...........	0
	465	9.32	1.84785E-001	4.12617E-006	0.00000E+000	1.84900E-001	1.43610E-004	10	...........	0
	468	9.38	1.87554E-001	-1.39364E-006	0.00000E+000	1.87900E-001	1.66796E-004	10	...........	0
	471	9.44	1.90504E-001	-1.05668E-006	0.00000E+000	1.90900E-001	1.70632E-004	10	...........	0
	474	9.5	1.93546E-001	-1.34026E-006	0.00000E+000	1.93900E-001	1.67713E-004	10	...........	0
	477	9.56	1.96457E-001	1.40546E-006	0.00000E+000	1.96900E-001	1.74552E-004	10	...........	0
	480	9.62	1.99392E-001	-9.43247E-007	0.00000E+000	1.99900E-001	1.66963E-004	10	...........	0
	483	9.68	2.02523E-001	-2.30960E-007	0.00000E+000	2.02900E-001	1.57372E-004	10	...........	0
	486	9.74	2.05716E-001	3.69412E-006	0.00000E+000	2.05900E-001	1.38690E-004	10	...........	0
	489	9.8	2.08463E-001	-1.25185E-006	0.00000E+000	2.08900E-001	1.75637E-004	10	...........	0
	492	9.86	2.11547E-001	-1.53042E-006	0.00000E+000	2.11900E-001	1.71717E-004	10	...........	0
	495	9.92	2.14461E-001	-7.88112E-007	0.00000E+000	2.14900E-001	1.69882E-004	10	...........	0
	498	9.98	2.17414E-001	5.04681E-007	0.00000E+000	2.17900E-001	1.68964E-004	10	...........	0
	501	10.04	2.20295E-001	-1.45035E-006	0.00000E+000	2.20900E-001	1.75803E-004	10	...........	0
	504	10.1	2.23387E-001	1.91074E-007	0.00000E+000	2.23900E-001	1.64377E-004	10	...........	0
	507	10.16	2.26703E-001	3.86928E-006	0.00000E+000	2.26900E-001	1.45695E-004	10	...........	0
	510	10.22	2.29510E-001	-1.35360E-006	0.00000E+000	2.29900E-001	1.72467E-004	10	...........	0
	513	10.28	2.32459E-001	-8.74854E-007	0.00000E+000	2.32900E-001	1.75386E-004	10	...........	0
	516	10.34	2.35544E-001	-1.04000E-006	0.00000E+000	2.35900E-001	1.71967E-004	10	...........	0
	519	10.4	2.38461E-001	1.28036E-006	0.00000E+000	2.38900E-001	1.72801E-004	10	...........	0
	522	10.46	2.41378E-001	-6.09623E-007	0.00000E+000	2.41900E-001	1.74719E-004	10	...........	0
	525	10.52	2.44340E-001	6.28122E-007	0.00000E+000	2.44900E-001	1.61375E-004	10	...........	0
	528	10.58	2.47678E-001	4.79675E-006	0.00000E+000	2.47900E-001	1.47697E-004	10	...........	0
	531	10.64	2.50409E-001	-5.37894E-007	0.00000E+000	2.50900E-001	1.70215E-004	10	...........	0
	534	10.7	2.53451E-001	-4.01108E-007	0.00000E+000	2.53900E-001	1.77471E-004	10	...........	0
	537	10.76	2.56431E-001	-4.62828E-007	0.00000E+000	2.56900E-001	1.73802E-004	10	...........	0
	540	10.82	2.59541E-001	1.10187E-006	0.00000E+000	2.59900E-001	1.69465E-004	10	...........	0
	543	10.88	2.62427E-001	-4.39474E-007	0.00000E+000	2.62900E-001	1.76471E-004	10	...........	0
	546	10.94	2.65427E-001	5.61397E-007	0.00000E+000	2.65900E-001	1.64711E-004	10	...........	0
	549	11	2.68693E-001	4.18622E-006	0.00000E+000	2.68900E-001	1.46363E-004	10	...........	0
	552	11.06	2.71364E-001	-7.28059E-007	0.00000E+000	2.71900E-001	1.79890E-004	10	...........	0
	555	11.12	2.74420E-001	-3.74418E-007	0.00000E+000	2.74900E-001	1.75553E-004	10	...........	0
	558	11.18	2.77468E-001	-3.36051E-007	0.00000E+000	2.77900E-001	1.76554E-004	10	...........	0
	561	11.24	2.80443E-001	1.60063E-006	0.00000E+000	2.80900E-001	1.74552E-004	10	...........	0
	564	11.3	2.83547E-001	-9.73273E-007	0.00000E+000	2.83900E-001	1.76888E-004	10	...........	0
	567	11.36	2.86421E-001	1.56044E-007	0.00000E+000	2.86900E-001	1.62459E-004	10	...........	0
	570	11.42	2.89664E-001	3.51730E-006	0.00000E+000	2.89900E-001	1.55120E-004	10	...........	0
	573	11.48	2.92481E-001	1.25700E-006	0.00000E+000	2.92900E-001	1.77388E-004	10	...........	0
	576	11.54	2.95322E-001	-8.56504E-007	0.00000E+000	2.95900E-001	1.74052E-004	10	...........	0
	579	11.6	2.98408E-001	-6.12959E-007	0.00000E+000	2.98900E-001	1.75637E-004	10	...........	0
	582	11.66	3.01402E-001	1.49888E-006	0.00000E+000	3.01900E-001	1.73051E-004	10	...........	0
	585	11.72	3.04409E-001	-1.97597E-007	0.00000E+000	3.04900E-001	1.75470E-004	10	...........	0
	588	11.78	3.07540E-001	-6.61334E-007	0.00000E+000	3.07900E-001	1.73718E-004	10	...........	0
	591	11.84	3.10420E-001	5.81414E-007	0.00000E+000	3.10900E-001	1.61875E-004	10	...........	0
	594	11.9	3.13684E-001	4.37138E-006	0.00000E+000	3.13900E-001	1.53285E-004	10	...........	0
	597	11.96	3.16331E-001	-9.16556E-007	0.00000E+000	3.16900E-001	1.70382E-004	10	...........	0
	600	12.02	3.19349E-001	-2.67658E-007	0.00000E+000	3.19900E-001	1.75720E-004	10	...........	0
	603	12.08	3.22365E-001	1.37878E-006	0.00000E+000	3.22900E-001	1.71967E-004	10	...........	0
	606	12.14	3.25389E-001	-8.58333E-008	0.00000E+000	3.25900E-001	1.74803E-004	10	...........	0
	609	12.2	3.28384E-001	2.36114E-007	0.00000E+000	3.28900E-001	1.75970E-004	10	...........	0
	612	12.26	3.31542E-001	8.43309E-007	0.00000E+000	3.31900E-001	1.61291E-004	10	...........	0
	615	12.32	3.34647E-001	4.71501E-006	0.00000E+000	3.34900E-001	1.43694E-004	10	...........	0
	618	12.38	3.37336E-001	-2.47641E-007	0.00000E+000	3.37900E-001	1.75303E-004	10	...........	0
	621	12.44	3.40319E-001	-8.58333E-008	0.00000E+000	3.40900E-001	1.70549E-004	10	...........	0
	624	12.5	3.43351E-001	-7.91610E-008	0.00000E+000	3.43900E-001	1.71049E-004	10	...........	0
	627	12.56	3.46294E-001	1.98597E-006	0.00000E+000	3.46900E-001	1.68130E-004	10	...........	0
	630	12.62	3.49351E-001	2.46122E-007	0.00000E+000	3.49900E-001	1.76888E-004	10	...........	0
	633	12.68	3.52368E-001	-1.02515E-007	0.00000E+000	3.52900E-001	1.71049E-004	10	...........	0
	636	12.74	3.55532E-001	6.81501E-007	0.00000E+000	3.55900E-001	1.63293E-004	10	...........	0
	639	12.8	3.58389E-001	8.16619E-007	0.00000E+000	3.58900E-001	1.59957E-004	10	...........	0
	642	12.86	3.61677E-001	4.93687E-006	0.00000E+000	3.61900E-001	1.44194E-004	10	...........	0
	645	12.92	3.64291E-001	9.24946E-009	0.00000E+000	3.64900E-001	1.76471E-004	10	...........	0
	648	12.98	3.67344E-001	9.43234E-008	0.00000E+000	3.67900E-001	1.76804E-004	10	...........	0
	651	13.04	3.70341E-001	-6.71343E-007	0.00000E+000	3.70900E-001	1.75803E-004	10	...........	0
	654	13.1	3.73357E-001	1.08352E-006	0.00000E+000	3.73900E-001	1.73718E-004	10	...........	0
	657	13.16	3.76348E-001	1.39363E-007	0.00000E+000	3.76900E-001	1.73718E-004	10	...........	0
	660	13.22	3.79545E-001	2.87825E-007	0.00000E+000	3.79900E-001	1.72384E-004	10	...........	0
	663	13.28	3.82632E-001	4.83512E-006	0.00000E+000	3.82900E-001	1.39857E-004	10	...........	0
	666	13.34	3.85292E-001	-2.41128E-008	0.00000E+000	3.85900E-001	1.75470E-004	10	...........	0
	669	13.4	3.88259E-001	1.25855E-008	0.00000E+000	3.88900E-001	1.77805E-004	10	...........	0
	672	13.46	3.91314E-001	2.09424E-007	0.00000E+000	3.91900E-001	1.77805E-004	10	...........	0
	675	13.52	3.94322E-001	2.11108E-006	0.00000E+000	3.94900E-001	1.74052E-004	10	...........	0
	678	13.58	3.97321E-001	2.99502E-007	0.00000E+000	3.97900E-001	1.75220E-004	10	...........	0
	681	13.64	4.00370E-001	1.03014E-006	0.00000E+000	4.00900E-001	1.60624E-004	10	...........	0
	684	13.7	4.03490E-001	-3.09361E-007	0.00000E+000	4.03900E-001	1.78639E-004	10	...........	0
	687	13.76	4.06585E-001	3.37218E-006	0.00000E+000	4.06900E-001	1.42276E-004	10	...........	0
	690	13.82	4.09626E-001	4.20123E-006	0.00000E+000	4.09900E-001	1.47363E-004	10	...........	0
	693	13.88	4.12205E-001	-1.41042E-008	0.00000E+000	4.12900E-001	1.74886E-004	10	...........	0
	696	13.94	4.15301E-001	-3.67745E-007	0.00000E+000	4.15900E-001	1.74469E-004	10	...........	0
	699	14	4.18277E-001	1.14023E-006	0.00000E+000	4.18900E-001	1.71800E-004	10	...........	0
	702	14.06	4.21286E-001	1.57561E-006	0.00000E+000	4.21900E-001	1.73135E-004	10	...........	0
	705	14.12	4.24358E-001	2.54463E-007	0.00000E+000	4.24900E-001	1.74052E-004	10	...........	0
	708	14.18	4.27469E-001	4.62978E-007	0.00000E+000	4.27900E-001	1.67630E-004	10	...........	0
	711	14.24	4.30587E-001	4.39307E-006	0.00000E+000	4.30900E-001	1.51784E-004	10	...........	0
	714	14.3	4.33267E-001	-1.27536E-007	0.00000E+000	4.33900E-001	1.71800E-004	10	...........	0
	717	14.36	4.36182E-001	-4.69501E-007	0.00000E+000	4.36900E-001	1.71133E-004	10	...........	0
	720	14.42	4.39268E-001	6.96514E-007	0.00000E+000	4.39900E-001	1.70632E-004	10	...........	0
	723	14.48	4.42276E-001	5.86418E-007	0.00000E+000	4.42900E-001	1.75136E-004	10	...........	0
	726	14.54	4.45271E-001	-2.20951E-007	0.00000E+000	4.45900E-001	1.77722E-004	10	...........	0
	729	14.6	4.48339E-001	6.04768E-007	0.00000E+000	4.48900E-001	1.56371E-004	10	...........	0
	732	14.66	4.51616E-001	5.07866E-006	0.00000E+000	4.51900E-001	1.35937E-004	10	...........	0
	735	14.72	4.54251E-001	-9.51587E-007	0.00000E+000	4.54900E-001	1.73552E-004	10	...........	0
	738	14.78	4.57238E-001	-1.05501E-006	0.00000E+000	4.57900E-001	1.76888E-004	10	...........	0
	741	14.84	4.60191E-001	-4.97859E-007	0.00000E+000	4.60900E-001	1.78305E-004	10	...........	0
	744	14.9	4.63262E-001	1.45050E-006	0.00000E+000	4.63900E-001	1.69882E-004	10	...........	0
	747	14.96	4.66272E-001	-4.36138E-007	0.00000E+000	4.66900E-001	1.80140E-004	10	...........	0
	750	15.02	4.69299E-001	3.86244E-007	0.00000E+000	4.69900E-001	1.67296E-004	10	...........	0
	753	15.08	4.72540E-001	4.54153E-006	0.00000E+000	4.72900E-001	1.47113E-004	10	...........	0
	756	15.14	4.75524E-001	3.59393E-008	0.00000E+000	4.75900E-001	1.69048E-004	10	...........	0
	759	15.2	4.78261E-001	4.59480E-008	0.00000E+000	4.78900E-001	1.79390E-004	10	...........	0
	762	15.26	4.81233E-001	2.96166E-007	0.00000E+000	4.81900E-001	1.76304E-004	10	...........	0
	765	15.32	4.84203E-001	1.86420E-006	0.00000E+000	4.84900E-001	1.73885E-004	10	...........	0
	768	15.38	4.87234E-001	-1.72576E-007	0.00000E+000	4.87900E-001	1.74719E-004	10	...........	0
	771	15.44	4.90271E-001	8.59990E-007	0.00000E+000	4.90900E-001	1.65962E-004	10	...........	0
	774	15.5	4.93512E-001	5.21211E-006	0.00000E+000	4.93900E-001	1.47113E-004	10	...........	0
	777	15.56	4.96310E-001	-1.80916E-007	0.00000E+000	4.96900E-001	1.75386E-004	10	...........	0
	780	15.62	4.99213E-001	3.42712E-008	0.00000E+000	4.99900E-001	1.70799E-004	10	...........	0
	783	15.68	5.02184E-001	-5.24710E-008	0.00000E+000	5.02900E-001	1.71967E-004	10	...........	0
	786	15.74	5.05175E-001	2.09440E-006	0.00000E+000	5.05900E-001	1.76971E-004	10	...........	0
	789	15.8	5.08166E-001	7.53230E-007	0.00000E+000	5.08900E-001	1.77555E-004	10	...........	0
	792	15.86	5.11262E-001	1.34374E-006	0.00000E+000	5.11900E-001	1.63627E-004	10	...........	0
	795	15.92	5.14419E-001	4.85180E-006	0.00000E+000	5.14900E-001	1.58623E-004	10	...........	0
	798	15.98	5.17311E-001	2.52644E-006	0.00000E+000	5.17900E-001	1.63043E-004	10	...........	0
	801	16.04	5.20304E-001	7.36549E-007	0.00000E+000	5.20900E-001	1.72134E-004	10	...........	0
	804	16.1	5.23164E-001	7.56567E-007	0.00000E+000	5.23900E-001	1.69048E-004	10	...........	0
	807	16.16	5.26284E-001	2.44304E-006	0.00000E+000	5.26900E-001	1.64794E-004	10	...........	0
	810	16.22	5.29082E-001	5.81414E-007	0.00000E+000	5.29900E-001	1.69298E-004	10	...........	0
	813	16.28	5.32145E-001	5.58061E-007	0.00000E+000	5.32900E-001	1.78139E-004	10	...........	0
	816	16.34	5.35241E-001	1.54892E-006	0.00000E+000	5.35900E-001	1.62876E-004	10	...........	0
	819	16.4	5.38432E-001	5.33388E-006	0.00000E+000	5.38900E-001	1.41108E-004	10	...........	0
	822	16.46	5.41185E-001	1.92742E-007	0.00000E+000	5.41900E-001	1.73718E-004	10	...........	0
	825	16.52	5.44299E-001	4.42960E-007	0.00000E+000	5.44900E-001	1.75053E-004	10	...........	0
	828	16.58	5.47169E-001	2.08773E-006	0.00000E+000	5.47900E-001	1.71717E-004	10	...........	0
	831	16.64	5.50130E-001	7.04855E-007	0.00000E+000	5.50900E-001	1.71633E-004	10	...........	0
	834	16.7	5.53049E-001	7.33213E-007	0.00000E+000	5.53900E-001	1.74052E-004	10	...........	0
	837	16.76	5.56151E-001	6.84838E-007	0.00000E+000	5.56900E-001	1.71216E-004	10	...........	0
	840	16.82	5.59216E-001	1.46051E-006	0.00000E+000	5.59900E-001	1.63210E-004	10	...........	0
	843	16.88	5.62377E-001	4.38139E-006	0.00000E+000	5.62900E-001	1.48031E-004	10	...........	0
	846	16.94	5.65391E-001	4.45145E-006	0.00000E+000	5.65900E-001	1.46446E-004	10	...........	0
	849	17	5.68295E-001	8.75003E-007	0.00000E+000	5.68900E-001	1.72717E-004	10	...........	0
	852	17.06	5.71179E-001	8.78339E-007	0.00000E+000	5.71900E-001	1.71633E-004	10	...........	0
	855	17.12	5.74133E-001	2.36463E-006	0.00000E+000	5.74900E-001	1.73552E-004	10	...........	0
	858	17.18	5.77041E-001	7.63239E-007	0.00000E+000	5.77900E-001	1.71633E-004	10	...........	0
	861	17.24	5.80147E-001	7.13196E-007	0.00000E+000	5.80900E-001	1.78889E-004	10	...........	0
	864	17.3	5.83170E-001	9.73422E-007	0.00000E+000	5.83900E-001	1.66629E-004	10	...........	0
	867	17.36	5.86194E-001	1.34208E-006	0.00000E+000	5.86900E-001	1.69632E-004	10	...........	0
	870	17.42	5.89397E-001	4.77507E-006	0.00000E+000	5.89900E-001	1.43027E-004	10	...........	0
	873	17.48	5.92340E-001	1.34374E-006	0.00000E+000	5.92900E-001	1.65962E-004	10	...........	0
	876	17.54	5.95129E-001	7.63239E-007	0.00000E+000	5.95900E-001	1.75553E-004	10	...........	0
	879	17.6	5.98119E-001	9.30051E-007	0.00000E+000	5.98900E-001	1.72884E-004	10	...........	0
	882	17.66	6.01106E-001	2.20283E-006	0.00000E+000	6.01900E-001	1.69882E-004	10	...........	0
	885	17.72	6.04129E-001	4.54637E-007	0.00000E+000	6.04900E-001	1.76637E-004	10	...........	0
	888	17.78	6.07170E-001	1.16359E-006	0.00000E+000	6.07900E-001	1.57538E-004	10	...........	0
	891	17.84	6.10409E-001	5.23046E-006	0.00000E+000	6.10900E-001	1.47947E-004	10	...........	0
	894	17.9	6.13157E-001	1.47703E-007	0.00000E+000	6.13900E-001	1.74302E-004	10	...........	0
	897	17.96	6.16273E-001	-2.35964E-007	0.00000E+000	6.16900E-001	1.81058E-004	10	...........	0
	900	18.02	6.19077E-001	-3.44392E-007	0.00000E+000	6.19900E-001	1.73885E-004	10	...........	0
	903	18.08	6.22088E-001	1.49888E-006	0.00000E+000	6.22900E-001	1.76721E-004	10	...........	0
	906	18.14	6.25057E-001	-1.50890E-007	0.00000E+000	6.25900E-001	1.75303E-004	10	...........	0
	909	18.2	6.28045E-001	1.29203E-006	0.00000E+000	6.28900E-001	1.62376E-004	10	...........	0
	912	18.26	6.31318E-001	5.44565E-006	0.00000E+000	6.31900E-001	1.50616E-004	10	...........	0
	915	18.32	6.34190E-001	1.94093E-006	0.00000E+000	6.34900E-001	1.71300E-004	10	...........	0
	918	18.38	6.37153E-001	5.28034E-007	0.00000E+000	6.37900E-001	1.72968E-004	10	...........	0
	921	18.44	6.40280E-001	5.58061E-007	0.00000E+000	6.40900E-001	1.73135E-004	10	...........	0
	924	18.5	6.43067E-001	2.12109E-006	0.00000E+000	6.43900E-001	1.75220E-004	10	...........	0
	927	18.56	6.46061E-001	7.51562E-007	0.00000E+000	6.46900E-001	1.82809E-004	10	...........	0
	930	18.62	6.49069E-001	1.03347E-006	0.00000E+000	6.49900E-001	1.66045E-004	10	...........	0
	933	18.68	6.52360E-001	5.91773E-006	0.00000E+000	6.52900E-001	1.45028E-004	10	...........	0
	936	18.74	6.55055E-001	1.01179E-006	0.00000E+000	6.55900E-001	1.74219E-004	10	...........	0
	939	18.8	6.58070E-001	8.08278E-007	0.00000E+000	6.58900E-001	1.76637E-004	10	...........	0
	942	18.86	6.61156E-001	1.24866E-006	0.00000E+000	6.61900E-001	1.72968E-004	10	...........	0
	945	18.92	6.64143E-001	2.93179E-006	0.00000E+000	6.64900E-001	1.70215E-004	10	...........	0
	948	18.98	6.67065E-001	2.05103E-006	0.00000E+000	6.67900E-001	1.76137E-004	10	...........	0
	951	19.04	6.70065E-001	1.34708E-006	0.00000E+000	6.70900E-001	1.73385E-004	10	...........	0
	954	19.1	6.73049E-001	1.85252E-006	0.00000E+000	6.73900E-001	1.63043E-004	10	...........	0
	957	19.16	6.76337E-001	6.23133E-006	0.00000E+000	6.76900E-001	1.49115E-004	10	...........	0
	960	19.22	6.79008E-001	1.26534E-006	0.00000E+000	6.79900E-001	1.76220E-004	10	...........	0
	963	19.28	6.82094E-001	1.76911E-006	0.00000E+000	6.82900E-001	1.76304E-004	10	...........	0
	966	19.34	6.85158E-001	2.23619E-006	0.00000E+000	6.85900E-001	1.69715E-004	10	...........	0
	969	19.4	6.88207E-001	2.90844E-006	0.00000E+000	6.88900E-001	1.68297E-004	10	...........	0
	972	19.46	6.91034E-001	1.42548E-006	0.00000E+000	6.91900E-001	1.79556E-004	10	...........	0
	975	19.52	6.94064E-001	1.96095E-006	0.00000E+000	6.94900E-001	1.64544E-004	10	...........	0
	978	19.58	6.97286E-001	5.92607E-006	0.00000E+000	6.97900E-001	1.47280E-004	10	...........	0
	981	19.64	7.00045E-001	1.43549E-006	0.00000E+000	7.00900E-001	1.77805E-004	10	...........	0
	984	19.7	7.03038E-001	1.69739E-006	0.00000E+000	7.03900E-001	1.75470E-004	10	...........	0
	987	19.76	7.06042E-001	1.26034E-006	0.00000E+000	7.06900E-001	1.76054E-004	10	...........	0
	990	19.82	7.09006E-001	3.00019E-006	0.00000E+000	7.09900E-001	1.76888E-004	10	...........	0
	993	19.88	7.12255E-001	1.65568E-006	0.00000E+000	7.12900E-001	1.71300E-004	10	...........	0
	996	19.94	7.15047E-001	2.42135E-006	0.00000E+000	7.15900E-001	1.60708E-004	10	...........	0
	999	20	7.18324E-001	6.24801E-006	0.00000E+000	7.18900E-001	1.46196E-004	10	...........	0
	1002	20.06	7.20975E-001	1.56394E-006	0.00000E+000	7.21900E-001	1.77805E-004	10	...........	0
	1005	20.12	7.24014E-001	1.39546E-006	0.00000E+000	7.24900E-001	1.76721E-004	10	...........	0
	1008	20.18	7.27019E-001	1.36543E-006	0.00000E+000	7.27900E-001	1.76971E-004	10	...........	0
	1011	20.24	7.30009E-001	2.56981E-006	0.00000E+000	7.30900E-001	1.71300E-004	10	...........	0
	1014	20.3	7.33148E-001	1.52390E-006	0.00000E+000	7.33900E-001	1.72134E-004	10	...........	0
	1017	20.36	7.36160E-001	1.93926E-006	0.00000E+000	7.36900E-001	1.60624E-004	10	...........	0
	1020	20.42	7.39189E-001	4.09614E-006	0.00000E+000	7.39900E-001	1.56788E-004	10	...........	0
	1023	20.48	7.42207E-001	4.30132E-006	0.00000E+000	7.42900E-001	1.57121E-004	10	...........	0
	1026	20.54	7.44961E-001	1.00178E-006	0.00000E+000	7.45900E-001	1.76220E-004	10	...........	0
	1029	20.6	7.48004E-001	1.05516E-006	0.00000E+000	7.48900E-001	1.76054E-004	10	...........	0
	1032	20.66	7.50993E-001	2.71661E-006	0.00000E+000	7.51900E-001	1.73885E-004	10	...........	0
	1035	20.72	7.53990E-001	1.33540E-006	0.00000E+000	7.54900E-001	1.74969E-004	10	...........	0
	1038	20.78	7.57143E-001	1.30371E-006	0.00000E+000	7.57900E-001	1.73885E-004	10	...........	0
	1041	20.84	7.59998E-001	1.80248E-006	0.00000E+000	7.60900E-001	1.67630E-004	10	...........	0
	1044	20.9	7.63000E-001	1.98931E-006	0.00000E+000	7.63900E-001	1.65128E-004	10	...........	0
	1047	20.96	7.66253E-001	5.79929E-006	0.00000E+000	7.66900E-001	1.51283E-004	10	...........	0
	1050	21.02	7.69004E-001	1.96762E-006	0.00000E+000	7.69900E-001	1.69965E-004	10	...........	0
	1053	21.08	7.71987E-001	1.08018E-006	0.00000E+000	7.72900E-001	1.74386E-004	10	...........	0
	1056	21.14	7.74984E-001	9.15038E-007	0.00000E+000	7.75900E-001	1.76888E-004	10	...........	0
	1059	21.2	7.78003E-001	2.49141E-006	0.00000E+000	7.78900E-001	1.73135E-004	10	...........	0
	1062	21.26	7.81036E-001	1.30538E-006	0.00000E+000	7.81900E-001	1.78639E-004	10	...........	0
	1065	21.32	7.83976E-001	1.02013E-006	0.00000E+000	7.84900E-001	1.73718E-004	10	...........	0
	1068	21.38	7.86981E-001	1.68571E-006	0.00000E+000	7.87900E-001	1.64711E-004	10	...........	0
	1071	21.44	7.89971E-001	1.63567E-006	0.00000E+000	7.90900E-001	1.64628E-004	10	...........	0
	1074	21.5	7.93229E-001	5.36558E-006	0.00000E+000	7.93900E-001	1.51033E-004	10	...........	0
	1077	21.56	7.95964E-001	9.80095E-007	0.00000E+000	7.96900E-001	1.74052E-004	10	...........	0
	1080	21.62	7.98966E-001	1.13523E-006	0.00000E+000	7.99900E-001	1.81558E-004	10	...........	0
	1083	21.68	8.01989E-001	1.38878E-006	0.00000E+000	8.02900E-001	1.78139E-004	10	...........	0
	1086	21.74	8.04980E-001	2.94514E-006	0.00000E+000	8.05900E-001	1.75553E-004	10	...........	0
	1089	21.8	8.08070E-001	1.16192E-006	0.00000E+000	8.08900E-001	1.72801E-004	10	...........	0
	1092	21.86	8.10939E-001	1.47886E-006	0.00000E+000	8.11900E-001	1.82309E-004	10	...........	0
	1095	21.92	8.13898E-001	1.39712E-006	0.00000E+000	8.14900E-001	1.78222E-004	10	...........	0
	1098	21.98	8.16964E-001	2.29124E-006	0.00000E+000	8.17900E-001	1.77305E-004	10	...........	0
	1101	22.04	8.20175E-001	6.09121E-006	0.00000E+000	8.20900E-001	1.55870E-004	10	...........	0
	1104	22.1	8.23066E-001	3.49061E-006	0.00000E+000	8.23900E-001	1.68130E-004	10	...........	0
	1107	22.16	8.25977E-001	1.49888E-006	0.00000E+000	8.26900E-001	1.77054E-004	10	...........	0
	1110	22.22	8.29047E-001	1.47219E-006	0.00000E+000	8.29900E-001	1.80390E-004	10	...........	0
	1113	22.28	8.31944E-001	3.01520E-006	0.00000E+000	8.32900E-001	1.80390E-004	10	...........	0
	1116	22.34	8.34954E-001	1.57228E-006	0.00000E+000	8.35900E-001	1.80974E-004	10	...........	0
	1119	22.4	8.37909E-001	2.20116E-006	0.00000E+000	8.38900E-001	1.72301E-004	10	...........	0
	1122	22.46	8.41207E-001	5.74758E-006	0.00000E+000	8.41900E-001	1.55954E-004	10	...........	0
	1125	22.52	8.44073E-001	3.46559E-006	0.00000E+000	8.44900E-001	1.63794E-004	10	...........	0
	1128	22.58	8.46959E-001	1.63567E-006	0.00000E+000	8.47900E-001	1.82809E-004	10	...........	0
	1131	22.64	8.49980E-001	1.51556E-006	0.00000E+000	8.50900E-001	1.77722E-004	10	...........	0
	1134	22.7	8.53050E-001	2.83504E-006	0.00000E+000	8.53900E-001	1.72634E-004	10	...........	0
	1137	22.76	8.55895E-001	1.36043E-006	0.00000E+000	8.56900E-001	1.75803E-004	10	...........	0
	1140	22.82	8.58885E-001	1.40713E-006	0.00000E+000	8.59900E-001	1.74386E-004	10	...........	0
	1143	22.88	8.61870E-001	2.32126E-006	0.00000E+000	8.62900E-001	1.69882E-004	10	...........	0
	1146	22.94	8.64945E-001	2.24620E-006	0.00000E+000	8.65900E-001	1.68214E-004	10	...........	0
	1149	23	8.68190E-001	6.57330E-006	0.00000E+000	8.68900E-001	1.47864E-004	10	...........	0
	1152	23.06	8.70947E-001	1.56394E-006	0.00000E+000	8.71900E-001	1.75386E-004	10	...........	0
	1155	23.12	8.73978E-001	1.76911E-006	0.00000E+000	8.74900E-001	1.77054E-004	10	...........	0
	1158	23.18	8.77082E-001	1.80581E-006	0.00000E+000	8.77900E-001	1.74219E-004	10	...........	0
	1161	23.24	8.79948E-001	3.22205E-006	0.00000E+000	8.80900E-001	1.73135E-004	10	...........	0
	1164	23.3	8.82892E-001	1.77579E-006	0.00000E+000	8.83900E-001	1.77722E-004	10	...........	0
	1167	23.36	8.85826E-001	1.86753E-006	0.00000E+000	8.86900E-001	1.82142E-004	10	...........	0
	1170	23.42	8.88955E-001	2.57982E-006	0.00000E+000	8.89900E-001	1.70382E-004	10	...........	0
	1173	23.48	8.91981E-001	2.81503E-006	0.00000E+000	8.92900E-001	1.64211E-004	10	...........	0
	1176	23.54	8.95188E-001	6.13125E-006	0.00000E+000	8.95900E-001	1.52618E-004	10	...........	0
	1179	23.6	8.97966E-001	1.97096E-006	0.00000E+000	8.98900E-001	1.72968E-004	10	...........	0
	1182	23.66	9.01082E-001	1.70239E-006	0.00000E+000	9.01900E-001	1.73051E-004	10	...........	0
	1185	23.72	9.03929E-001	3.02854E-006	0.00000E+000	9.04900E-001	1.74386E-004	10	...........	0
	1188	23.78	9.06894E-001	1.90256E-006	0.00000E+000	9.07900E-001	1.79807E-004	10	...........	0
	1191	23.84	9.09852E-001	2.07104E-006	0.00000E+000	9.10900E-001	1.63126E-004	10	...........	0
	1194	23.9	9.13063E-001	4.42142E-006	0.00000E+000	9.13900E-001	1.54536E-004	10	...........	0
	1197	23.96	9.16102E-001	5.57243E-006	0.00000E+000	9.16900E-001	1.49782E-004	10	...........	0
	1200	24.02	9.18936E-001	1.38878E-006	0.00000E+000	9.19900E-001	1.77638E-004	10	...........	0
	1203	24.08	9.21958E-001	1.61398E-006	0.00000E+000	9.22900E-001	1.75386E-004	10	...........	0
	1206	24.14	9.25020E-001	3.26375E-006	0.00000E+000	9.25900E-001	1.69215E-004	10	...........	0
	1209	24.2	9.27869E-001	2.00766E-006	0.00000E+000	9.28900E-001	1.74135E-004	10	...........	0
	1212	24.26	9.30861E-001	1.93593E-006	0.00000E+000	9.31900E-001	1.76721E-004	10	...........	0
	1215	24.32	9.33858E-001	1.88588E-006	0.00000E+000	9.34900E-001	1.69715E-004	10	...........	0
	1218	24.38	9.37155E-001	6.91026E-006	0.00000E+000	9.37900E-001	1.47030E-004	10	...........	0
	1221	24.44	9.39894E-001	1.59730E-006	0.00000E+000	9.40900E-001	1.76888E-004	10	...........	0
	1224	24.5	9.42921E-001	1.94093E-006	0.00000E+000	9.43900E-001	1.75136E-004	10	...........	0
	1227	24.56	9.45962E-001	2.36630E-006	0.00000E+000	9.46900E-001	1.72717E-004	10	...........	0
	1230	24.62	9.49028E-001	2.96015E-006	0.00000E+000	9.49900E-001	1.70632E-004	10	...........	0
	1233	24.68	9.51824E-001	1.77746E-006	0.00000E+000	9.52900E-001	1.76804E-004	10	...........	0
	1236	24.74	9.54895E-001	2.57815E-006	0.00000E+000	9.55900E-001	1.64294E-004	10	...........	0
	1239	24.8	9.58135E-001	6.99200E-006	0.00000E+000	9.58900E-001	1.40942E-004	10	...........	0
	1242	24.86	9.60772E-001	1.49554E-006	0.00000E+000	9.61900E-001	1.71717E-004	10	...........	0
	1245	24.92	9.63843E-001	1.70239E-006	0.00000E+000	9.64900E-001	1.80390E-004	10	...........	0
	1248	24.98	9.66887E-001	1.43549E-006	0.00000E+000	9.67900E-001	1.76971E-004	10	...........	0
	1251	25.04	9.69956E-001	3.04356E-006	0.00000E+000	9.70900E-001	1.74386E-004	10	...........	0
	1254	25.1	9.73007E-001	1.54058E-006	0.00000E+000	9.73900E-001	1.77221E-004	10	...........	0
	1257	25.16	9.75858E-001	2.24453E-006	0.00000E+000	9.76900E-001	1.67713E-004	10	...........	0
	1260	25.22	9.79136E-001	6.01948E-006	0.00000E+000	9.79900E-001	1.52368E-004	10	...........	0
	1263	25.28	9.81827E-001	1.79747E-006	0.00000E+000	9.82900E-001	1.78806E-004	10	...........	0
	1266	25.34	9.84841E-001	1.53725E-006	0.00000E+000	9.85900E-001	1.81058E-004	10	...........	0
	1269	25.4	9.87849E-001	1.61565E-006	0.00000E+000	9.88900E-001	1.76888E-004	10	...........	0
	1272	25.46	9.90879E-001	3.17367E-006	0.00000E+000	9.91900E-001	1.75970E-004	10	...........	0
	1275	25.52	9.93954E-001	1.55893E-006	0.00000E+000	9.94900E-001	1.75720E-004	10	...........	0
	1278	25.58	9.96989E-001	2.38632E-006	0.00000E+000	9.97900E-001	1.66546E-004	10	...........	0
	1281	25.64	1.00014E+000	6.80683E-006	0.00000E+000	1.00090E+000	1.52117E-004	10	...........	0
	1284	25.7	1.00282E+000	1.73742E-006	0.00000E+000	1.00390E+000	1.79807E-004	10	...........	0
	1285	25.72	1.00382E+000	1.88422E-006	0.00000E+000	1.00490E+000	1.80390E-004	10	...........	0