File: 20191129/matning1/CVTESTKRISTALL4BOX5_2.DTA
EXPLAIN
TAG	CV
TITLE	LABEL	CV	Test &Identifier
DATE	LABEL	11/29/2019	Date
TIME	LABEL	11:03:20	Time
NOTES	NOTES	1	&Notes...

PSTAT	PSTAT	REF600-16093	Potentiostat
VINIT	POTEN	0.00000E+000	T	Initial &E (V)
VLIMIT1	POTEN	8.00000E-001	F	Scan Limit &1 (V)
VLIMIT2	POTEN	-5.00000E-001	F	Scan Limit &2 (V)
VFINAL	POTEN	0.00000E+000	T	Final &E (V)
SCANRATE	QUANT	4.99999E+001	&Scan Rate (mV/s)
STEPSIZE	QUANT	1.00000E+000	St&ep Size (mV)
CYCLES	IQUANT	5	C&ycles (#)
IMODE	SELECTOR	1	I/E Range &Mode
IRANGE	QUANT	1.50000E+001	&Max Current (mA)
AREA	QUANT	1.00000E+000	Electrode &Area (cm^2)
ELECTRODETYPE	SELECTOR	0	Electrode Type
STRIPPING	TOGGLE	F	Used for Stripping
POLARITY	TOGGLE	F	Signal Polarity
CONDIT	TWOPARAM	F	1.50000E+001	0.00000E+000	Conditionin&g	Time(s)	E(V)
DELAY	TWOPARAM	T	5.00000E+000	0.00000E+000	Init. De&lay	Time(s)	Stab.(mV/s)
EQDELAY	QUANT	3.00000E+000	Equil. &Time (s)
IRCOMP	SELECTOR	0	IRCom&p
PFCOR	QUANT	0.00000E+000	PF Corr. (ohm)
SAMPLINGMODE	SELECTOR	2	Sampling &Mode
OCVCURVE	TABLE	20
	Pt	T	Vf	Vm	Ach	Over
	#	s	V vs. Ref.	V	V	bits
	0	0.25	1.04873E-001	1.04873E-001	8.11002E-005	...........
	1	0.5	1.04914E-001	1.07029E-001	6.51421E-005	...........
	2	0.75	1.05084E-001	1.04722E-001	8.55168E-005	...........
	3	1	1.05362E-001	1.06387E-001	8.27669E-005	...........
	4	1.25	1.05591E-001	1.04959E-001	8.07252E-005	...........
	5	1.5	1.05729E-001	1.08725E-001	7.61420E-005	...........
	6	1.75	1.05928E-001	1.05108E-001	7.98086E-005	...........
	7	2	1.06237E-001	1.07641E-001	7.52670E-005	...........
	8	2.25	1.06440E-001	1.02788E-001	7.81419E-005	...........
	9	2.5	1.06286E-001	1.05778E-001	7.80169E-005	...........
	10	2.75	1.05883E-001	1.09306E-001	7.79753E-005	...........
	11	3	1.05766E-001	1.06314E-001	8.20585E-005	...........
	12	3.25	1.06162E-001	1.05957E-001	8.13502E-005	...........
	13	3.5	1.06582E-001	1.05025E-001	7.77253E-005	...........
	14	3.75	1.06604E-001	1.08503E-001	7.81419E-005	...........
	15	4	1.06410E-001	1.03588E-001	8.08086E-005	...........
	16	4.25	1.06244E-001	1.07187E-001	7.40587E-005	...........
	17	4.5	1.06098E-001	1.05701E-001	8.98501E-005	...........
	18	4.75	1.06015E-001	1.07089E-001	8.33919E-005	...........
	19	5	1.06075E-001	1.05680E-001	8.54335E-005	...........
EOC	QUANT	0.1060751	Open Circuit (V)
PSTATMODEL	IQUANT	4	Pstat Model
PSTATSECTION	LABEL	REF600-16093	Pstat Section
PSTATSERIALNO	LABEL	16093	Pstat Serial Number
CTRLMODE	IQUANT	1	Control Mode
IESTAB	IQUANT	2	I/E Stability
CASPEED	IQUANT	2	Control Amp Speed
CONVENTION	IQUANT	1	Current Convention
ICHRANGE	IQUANT	2	Ich Range
ICHRANGEMODE	TOGGLE	F	Ich Auto Range
ICHOFFSETENABLE	TOGGLE	F	Ich Offset Enable
ICHOFFSET	QUANT	0	Ich Offset (V)
ICHFILTER	IQUANT	2	Ich Filter
VCHRANGE	IQUANT	2	Vch Range
VCHRANGEMODE	TOGGLE	F	Vch Auto Range
VCHOFFSETENABLE	TOGGLE	F	Vch Offset Enable
VCHOFFSET	QUANT	0	Vch Offset (V)
VCHFILTER	IQUANT	2	Vch Filter
ACHRANGE	IQUANT	2	Ach Range
ACHOFFSETENABLE	TOGGLE	F	Ach Offset Enable
ACHOFFSET	QUANT	0	Ach Offset (V)
ACHFILTER	IQUANT	1	Ach Filter
IERANGELOWERLIMIT	IQUANT	1	I/E Range Lower Limit
IERANGEMODE	TOGGLE	F	I/E AutoRange
IERANGE	IQUANT	10	I/E Range
POSFEEDENABLE	TOGGLE	F	Positive Feedback IR Comp
POSFEEDRESISTANCE	QUANT	0	Positive Feedback Resistance (ohm)
ACHSELECT	IQUANT	0	Ach Select
CABLEID	IQUANT	14	Cable ID
DCCALDATE	LABEL	11/5/2019	DC Calibration Date
ACCALDATE	LABEL		AC Calibration Date
THERMOSELECT	IQUANT	1	Thermo Select
FRAMEWORKVERSION	QUANT	6.12	Framework Version
INSTRUMENTVERSION	LABEL	3.11	Instrument Version
CURVE1	TABLE
	Pt	T	Vf	Im	Vu	Sig	Ach	IERange	Over
	#	s	V vs. Ref.	A	V	V	V	#	bits
	0	0.02	1.05752E-001	-1.21849E-006	0.00000E+000	1.06100E-001	7.53879E-005	10	...........
	4	0.1	1.09657E-001	-3.96254E-006	0.00000E+000	1.10100E-001	7.53879E-005	10	...........
	8	0.18	1.13660E-001	-2.56799E-006	0.00000E+000	1.14100E-001	7.23020E-005	10	...........
	12	0.26	1.17682E-001	-2.68143E-006	0.00000E+000	1.18100E-001	7.14680E-005	10	...........
	16	0.34	1.21776E-001	-3.49380E-006	0.00000E+000	1.22100E-001	7.56381E-005	10	...........
	20	0.42	1.25664E-001	-1.29689E-006	0.00000E+000	1.26100E-001	7.58049E-005	10	...........
	24	0.5	1.29739E-001	-2.70144E-006	0.00000E+000	1.30100E-001	7.85571E-005	10	...........
	28	0.58	1.33665E-001	-1.61883E-006	0.00000E+000	1.34100E-001	7.63053E-005	10	...........
	32	0.66	1.37858E-001	1.95761E-006	0.00000E+000	1.38100E-001	6.32947E-005	10	...........
	36	0.74	1.41573E-001	-2.77151E-006	0.00000E+000	1.42100E-001	7.18016E-005	10	...........
	40	0.82	1.45587E-001	-2.49126E-006	0.00000E+000	1.46050E-001	7.65555E-005	10	...........
	44	0.9	1.49591E-001	-2.21435E-006	0.00000E+000	1.50050E-001	7.88907E-005	10	...........
	48	0.98	1.53631E-001	-1.39864E-006	0.00000E+000	1.54050E-001	7.23854E-005	10	...........
	52	1.06	1.57606E-001	-1.93077E-006	0.00000E+000	1.58050E-001	6.98834E-005	10	...........
	56	1.14	1.61573E-001	-2.51628E-006	0.00000E+000	1.62050E-001	7.78899E-005	10	...........
	60	1.22	1.65559E-001	-2.85157E-006	0.00000E+000	1.66050E-001	7.59717E-005	10	...........
	64	1.3	1.69581E-001	-4.96191E-007	0.00000E+000	1.70050E-001	7.55547E-005	10	...........
	68	1.38	1.73583E-001	-2.18600E-006	0.00000E+000	1.74050E-001	7.39701E-005	10	...........
	72	1.46	1.77725E-001	-9.09992E-009	0.00000E+000	1.78050E-001	6.33781E-005	10	...........
	76	1.54	1.81579E-001	-2.55298E-006	0.00000E+000	1.82050E-001	7.26356E-005	10	...........
	80	1.62	1.85554E-001	-2.85992E-006	0.00000E+000	1.86050E-001	7.53879E-005	10	...........
	84	1.7	1.89556E-001	-2.37282E-006	0.00000E+000	1.90050E-001	7.67223E-005	10	...........
	88	1.78	1.93636E-001	-2.02419E-006	0.00000E+000	1.94050E-001	7.51377E-005	10	...........
	92	1.86	1.97575E-001	-9.26565E-007	0.00000E+000	1.98050E-001	7.20518E-005	10	...........
	96	1.94	2.01787E-001	1.90423E-006	0.00000E+000	2.02050E-001	6.45457E-005	10	...........
	100	2.02	2.05542E-001	-2.09258E-006	0.00000E+000	2.06050E-001	7.85571E-005	10	...........
	104	2.1	2.09484E-001	-1.90408E-006	0.00000E+000	2.10050E-001	7.88907E-005	10	...........
	108	2.18	2.13531E-001	-1.16344E-006	0.00000E+000	2.14050E-001	8.46455E-005	10	...........
	112	2.26	2.17477E-001	4.07930E-007	0.00000E+000	2.18050E-001	7.94746E-005	10	...........
	116	2.34	2.21549E-001	-5.14540E-007	0.00000E+000	2.22050E-001	7.63887E-005	10	...........
	120	2.42	2.25598E-001	-2.50977E-007	0.00000E+000	2.26050E-001	7.60551E-005	10	...........
	124	2.5	2.29675E-001	2.94180E-006	0.00000E+000	2.30050E-001	6.17100E-005	10	...........
	128	2.58	2.33475E-001	-9.69936E-007	0.00000E+000	2.34050E-001	8.41450E-005	10	...........
	132	2.66	2.37504E-001	-5.07868E-007	0.00000E+000	2.38050E-001	7.63053E-005	10	...........
	136	2.74	2.41442E-001	-1.05001E-006	0.00000E+000	2.42050E-001	7.90576E-005	10	...........
	140	2.82	2.45500E-001	-5.47902E-007	0.00000E+000	2.46050E-001	7.82235E-005	10	...........
	144	2.9	2.49465E-001	7.83257E-007	0.00000E+000	2.50050E-001	7.67223E-005	10	...........
	148	2.98	2.53523E-001	-6.78016E-007	0.00000E+000	2.54050E-001	8.02252E-005	10	...........
	152	3.06	2.57476E-001	-8.16470E-007	0.00000E+000	2.58050E-001	7.54713E-005	10	...........
	156	3.14	2.61652E-001	3.30712E-006	0.00000E+000	2.62050E-001	6.17934E-005	10	...........
	160	3.22	2.65460E-001	-4.99527E-007	0.00000E+000	2.66050E-001	7.91409E-005	10	...........
	164	3.3	2.69417E-001	-9.25059E-008	0.00000E+000	2.70050E-001	7.82235E-005	10	...........
	168	3.38	2.73489E-001	-5.22881E-007	0.00000E+000	2.74050E-001	8.29774E-005	10	...........
	172	3.46	2.77518E-001	2.31109E-007	0.00000E+000	2.78050E-001	7.89741E-005	10	...........
	176	3.54	2.81594E-001	1.54058E-006	0.00000E+000	2.82050E-001	7.07174E-005	10	...........
	180	3.62	2.85468E-001	-2.44305E-007	0.00000E+000	2.86050E-001	8.48957E-005	10	...........
	184	3.7	2.89440E-001	-1.67571E-007	0.00000E+000	2.90050E-001	8.20600E-005	10	...........
	188	3.78	2.93436E-001	-5.66252E-007	0.00000E+000	2.94050E-001	8.32276E-005	10	...........
	192	3.86	2.97405E-001	1.37043E-006	0.00000E+000	2.98050E-001	9.02334E-005	10	...........
	196	3.94	3.01462E-001	-4.24622E-008	0.00000E+000	3.02050E-001	8.06422E-005	10	...........
	200	4.02	3.05457E-001	8.36637E-007	0.00000E+000	3.06050E-001	7.84737E-005	10	...........
	204	4.1	3.09456E-001	-4.46147E-007	0.00000E+000	3.10050E-001	8.13094E-005	10	...........
	208	4.18	3.13636E-001	3.57235E-006	0.00000E+000	3.14050E-001	7.69725E-005	10	...........
	212	4.26	3.17549E-001	2.36463E-006	0.00000E+000	3.18050E-001	7.38866E-005	10	...........
	216	4.34	3.21498E-001	-5.56243E-007	0.00000E+000	3.22050E-001	8.16430E-005	10	...........
	220	4.42	3.25462E-001	1.24350E-007	0.00000E+000	3.26050E-001	8.97329E-005	10	...........
	224	4.5	3.29411E-001	2.24437E-007	0.00000E+000	3.30050E-001	8.51459E-005	10	...........
	228	4.58	3.33425E-001	-2.62654E-007	0.00000E+000	3.34050E-001	9.25686E-005	10	...........
	232	4.66	3.37395E-001	1.02680E-006	0.00000E+000	3.38050E-001	8.29774E-005	10	...........
	236	4.74	3.41569E-001	4.12617E-006	0.00000E+000	3.42050E-001	7.53879E-005	10	...........
	240	4.82	3.45361E-001	1.72725E-007	0.00000E+000	3.46050E-001	9.34860E-005	10	...........
	244	4.9	3.49398E-001	2.58149E-006	0.00000E+000	3.50050E-001	8.64803E-005	10	...........
	248	4.98	3.53388E-001	9.56741E-007	0.00000E+000	3.54050E-001	8.68139E-005	10	...........
	252	5.06	3.57419E-001	1.62566E-006	0.00000E+000	3.58050E-001	7.82235E-005	10	...........
	256	5.14	3.61359E-001	5.53056E-007	0.00000E+000	3.62050E-001	8.30608E-005	10	...........
	260	5.22	3.65571E-001	4.37972E-006	0.00000E+000	3.66050E-001	6.44623E-005	10	...........
	264	5.3	3.69343E-001	8.38305E-007	0.00000E+000	3.70050E-001	8.98163E-005	10	...........
	268	5.38	3.73385E-001	1.06016E-006	0.00000E+000	3.74050E-001	9.07338E-005	10	...........
	272	5.46	3.77383E-001	2.74830E-006	0.00000E+000	3.78050E-001	8.88989E-005	10	...........
	276	5.54	3.81398E-001	1.31705E-006	0.00000E+000	3.82050E-001	8.45620E-005	10	...........
	280	5.62	3.85354E-001	8.73335E-007	0.00000E+000	3.86050E-001	8.30608E-005	10	...........
	284	5.7	3.89486E-001	3.87094E-006	0.00000E+000	3.90050E-001	7.18016E-005	10	...........
	288	5.78	3.93333E-001	1.38712E-006	0.00000E+000	3.94050E-001	9.01500E-005	10	...........
	292	5.86	3.97366E-001	3.15032E-006	0.00000E+000	3.98050E-001	9.14844E-005	10	...........
	296	5.94	4.01360E-001	1.52223E-006	0.00000E+000	4.02050E-001	8.54795E-005	10	...........
	300	6.02	4.05438E-001	3.05190E-006	0.00000E+000	4.06050E-001	7.78065E-005	10	...........
	304	6.1	4.09363E-001	1.27202E-006	0.00000E+000	4.10050E-001	8.83985E-005	10	...........
	308	6.18	4.13340E-001	1.57895E-006	0.00000E+000	4.14050E-001	8.31442E-005	10	...........
	312	6.26	4.17331E-001	1.77912E-006	0.00000E+000	4.18050E-001	8.37280E-005	10	...........
	316	6.34	4.21335E-001	2.03435E-006	0.00000E+000	4.22050E-001	8.63135E-005	10	...........
	320	6.42	4.25335E-001	2.59150E-006	0.00000E+000	4.26050E-001	8.73143E-005	10	...........
	324	6.5	4.29522E-001	6.35477E-006	0.00000E+000	4.30050E-001	6.36283E-005	10	...........
	328	6.58	4.33338E-001	2.24453E-006	0.00000E+000	4.34050E-001	9.18180E-005	10	...........
	332	6.66	4.37322E-001	2.54813E-006	0.00000E+000	4.38050E-001	8.34778E-005	10	...........
	336	6.74	4.41326E-001	4.12950E-006	0.00000E+000	4.42050E-001	9.09840E-005	10	...........
	340	6.82	4.45331E-001	2.67490E-006	0.00000E+000	4.46050E-001	8.76479E-005	10	...........
	344	6.9	4.49316E-001	3.41555E-006	0.00000E+000	4.50050E-001	8.86487E-005	10	...........
	348	6.98	4.53496E-001	7.02035E-006	0.00000E+000	4.54050E-001	6.76315E-005	10	...........
	352	7.06	4.57317E-001	2.53145E-006	0.00000E+000	4.58050E-001	8.68973E-005	10	...........
	356	7.14	4.61311E-001	2.74496E-006	0.00000E+000	4.62050E-001	9.25686E-005	10	...........
	360	7.22	4.65307E-001	3.79922E-006	0.00000E+000	4.66050E-001	8.23936E-005	10	...........
	364	7.3	4.69325E-001	3.16199E-006	0.00000E+000	4.70050E-001	8.10592E-005	10	...........
	368	7.38	4.73305E-001	4.01774E-006	0.00000E+000	4.74050E-001	7.82235E-005	10	...........
	372	7.46	4.77377E-001	4.66997E-006	0.00000E+000	4.78050E-001	7.52211E-005	10	...........
	376	7.54	4.81304E-001	3.00686E-006	0.00000E+000	4.82050E-001	8.37280E-005	10	...........
	380	7.62	4.85315E-001	3.27876E-006	0.00000E+000	4.86050E-001	8.72309E-005	10	...........
	384	7.7	4.89290E-001	4.72002E-006	0.00000E+000	4.90050E-001	8.09758E-005	10	...........
	388	7.78	4.93306E-001	4.33969E-006	0.00000E+000	4.94050E-001	8.83151E-005	10	...........
	392	7.86	4.97440E-001	7.59419E-006	0.00000E+000	4.98050E-001	6.78817E-005	10	...........
	396	7.94	5.01299E-001	3.18368E-006	0.00000E+000	5.02050E-001	8.78147E-005	10	...........
	400	8.02	5.05273E-001	3.27376E-006	0.00000E+000	5.06050E-001	7.88073E-005	10	...........
	404	8.1	5.09288E-001	3.34549E-006	0.00000E+000	5.10050E-001	8.63135E-005	10	...........
	408	8.18	5.13247E-001	3.36717E-006	0.00000E+000	5.14050E-001	7.70559E-005	10	...........
	412	8.26	5.17288E-001	4.23126E-006	0.00000E+000	5.18050E-001	8.18098E-005	10	...........
	416	8.34	5.21392E-001	6.73177E-006	0.00000E+000	5.22050E-001	6.58801E-005	10	...........
	420	8.42	5.25240E-001	3.42222E-006	0.00000E+000	5.26050E-001	8.13928E-005	10	...........
	424	8.5	5.29227E-001	5.19043E-006	0.00000E+000	5.30050E-001	8.18098E-005	10	...........
	428	8.58	5.33264E-001	4.12617E-006	0.00000E+000	5.34050E-001	7.90576E-005	10	...........
	432	8.66	5.37256E-001	3.54066E-006	0.00000E+000	5.38050E-001	8.06422E-005	10	...........
	436	8.74	5.41265E-001	5.32721E-006	0.00000E+000	5.42050E-001	8.08924E-005	10	...........
	440	8.82	5.45266E-001	4.95022E-006	0.00000E+000	5.46050E-001	7.91409E-005	10	...........
	444	8.9	5.49316E-001	5.32888E-006	0.00000E+000	5.50050E-001	7.63887E-005	10	...........
	448	8.98	5.53206E-001	3.56902E-006	0.00000E+000	5.54050E-001	8.35612E-005	10	...........
	452	9.06	5.57239E-001	3.88763E-006	0.00000E+000	5.58050E-001	8.30608E-005	10	...........
	456	9.14	5.61211E-001	3.65242E-006	0.00000E+000	5.62050E-001	8.10592E-005	10	...........
	460	9.22	5.65229E-001	3.96770E-006	0.00000E+000	5.66050E-001	7.54713E-005	10	...........
	464	9.3	5.69215E-001	4.34135E-006	0.00000E+000	5.70050E-001	8.08924E-005	10	...........
	468	9.38	5.73258E-001	5.08700E-006	0.00000E+000	5.74050E-001	8.09758E-005	10	...........
	472	9.46	5.77468E-001	8.62842E-006	0.00000E+000	5.78050E-001	6.69643E-005	10	...........
	476	9.54	5.81216E-001	4.51317E-006	0.00000E+000	5.82050E-001	8.15596E-005	10	...........
	480	9.62	5.85201E-001	4.87849E-006	0.00000E+000	5.86050E-001	8.13094E-005	10	...........
	484	9.7	5.89197E-001	6.20131E-006	0.00000E+000	5.90050E-001	8.03086E-005	10	...........
	488	9.78	5.93188E-001	4.72502E-006	0.00000E+000	5.94050E-001	7.82235E-005	10	...........
	492	9.86	5.97227E-001	5.69754E-006	0.00000E+000	5.98050E-001	7.98916E-005	10	...........
	496	9.94	6.01234E-001	6.09121E-006	0.00000E+000	6.02050E-001	7.55547E-005	10	...........
	500	10.02	6.05199E-001	4.50149E-006	0.00000E+000	6.06050E-001	7.96414E-005	10	...........
	504	10.1	6.09173E-001	6.75345E-006	0.00000E+000	6.10050E-001	7.91409E-005	10	...........
	508	10.18	6.13202E-001	5.16040E-006	0.00000E+000	6.14050E-001	8.38114E-005	10	...........
	512	10.26	6.17148E-001	6.11957E-006	0.00000E+000	6.18050E-001	8.61467E-005	10	...........
	516	10.34	6.21355E-001	1.01080E-005	0.00000E+000	6.22050E-001	6.29610E-005	10	...........
	520	10.42	6.25156E-001	5.64916E-006	0.00000E+000	6.26050E-001	7.50543E-005	10	...........
	524	10.5	6.29182E-001	5.76092E-006	0.00000E+000	6.30050E-001	8.18932E-005	10	...........
	528	10.58	6.33058E-001	6.92694E-006	0.00000E+000	6.34050E-001	8.60633E-005	10	...........
	532	10.66	6.37192E-001	7.28892E-006	0.00000E+000	6.38050E-001	8.32276E-005	10	...........
	536	10.74	6.41289E-001	1.09638E-005	0.00000E+000	6.42050E-001	6.75481E-005	10	...........
	540	10.82	6.45172E-001	6.76680E-006	0.00000E+000	6.46050E-001	7.97248E-005	10	...........
	544	10.9	6.49126E-001	6.30973E-006	0.00000E+000	6.50050E-001	8.25604E-005	10	...........
	548	10.98	6.53168E-001	7.31061E-006	0.00000E+000	6.54050E-001	8.23102E-005	10	...........
	552	11.06	6.57055E-001	8.32149E-006	0.00000E+000	6.58050E-001	7.78065E-005	10	...........
	556	11.14	6.61317E-001	1.06619E-005	0.00000E+000	6.62050E-001	6.18768E-005	10	...........
	560	11.22	6.65064E-001	7.06539E-006	0.00000E+000	6.66050E-001	8.15596E-005	10	...........
	564	11.3	6.69171E-001	7.41236E-006	0.00000E+000	6.70050E-001	8.09758E-005	10	...........
	568	11.38	6.73102E-001	9.17890E-006	0.00000E+000	6.74050E-001	7.72227E-005	10	...........
	572	11.46	6.77167E-001	8.19137E-006	0.00000E+000	6.78050E-001	7.46373E-005	10	...........
	576	11.54	6.81266E-001	1.18996E-005	0.00000E+000	6.82050E-001	6.70477E-005	10	...........
	580	11.62	6.85168E-001	7.51912E-006	0.00000E+000	6.86050E-001	8.00584E-005	10	...........
	584	11.7	6.89054E-001	8.00454E-006	0.00000E+000	6.90050E-001	8.73143E-005	10	...........
	588	11.78	6.93168E-001	8.48830E-006	0.00000E+000	6.94050E-001	7.87239E-005	10	...........
	592	11.86	6.97058E-001	8.21139E-006	0.00000E+000	6.98050E-001	7.92243E-005	10	...........
	596	11.94	7.01169E-001	9.31068E-006	0.00000E+000	7.02050E-001	7.33862E-005	10	...........
	600	12.02	7.05144E-001	1.11957E-005	0.00000E+000	7.06050E-001	7.63887E-005	10	...........
	604	12.1	7.09044E-001	8.69181E-006	0.00000E+000	7.10050E-001	7.87239E-005	10	...........
	608	12.18	7.13028E-001	9.00541E-006	0.00000E+000	7.14050E-001	7.83903E-005	10	...........
	612	12.26	7.17165E-001	1.06518E-005	0.00000E+000	7.18050E-001	7.46373E-005	10	...........
	616	12.34	7.21008E-001	1.01731E-005	0.00000E+000	7.22050E-001	7.96414E-005	10	...........
	620	12.42	7.25296E-001	1.37896E-005	0.00000E+000	7.26050E-001	5.82906E-005	10	...........
	624	12.5	7.29048E-001	1.01781E-005	0.00000E+000	7.30050E-001	7.59717E-005	10	...........
	628	12.58	7.33163E-001	1.00246E-005	0.00000E+000	7.34050E-001	8.36446E-005	10	...........
	632	12.66	7.36993E-001	1.08737E-005	0.00000E+000	7.38050E-001	8.23102E-005	10	...........
	636	12.74	7.41161E-001	1.00480E-005	0.00000E+000	7.42050E-001	7.68891E-005	10	...........
	640	12.82	7.45004E-001	1.07286E-005	0.00000E+000	7.46050E-001	8.17264E-005	10	...........
	644	12.9	7.49257E-001	1.32091E-005	0.00000E+000	7.50050E-001	6.55465E-005	10	...........
	648	12.98	7.53025E-001	9.74106E-006	0.00000E+000	7.54050E-001	8.18098E-005	10	...........
	652	13.06	7.57165E-001	1.15993E-005	0.00000E+000	7.58050E-001	8.18932E-005	10	...........
	656	13.14	7.60977E-001	1.05201E-005	0.00000E+000	7.62050E-001	7.97248E-005	10	...........
	660	13.22	7.65162E-001	1.01748E-005	0.00000E+000	7.66050E-001	8.35612E-005	10	...........
	664	13.3	7.68989E-001	1.10839E-005	0.00000E+000	7.70050E-001	7.38032E-005	10	...........
	668	13.38	7.73181E-001	1.15043E-005	0.00000E+000	7.74050E-001	7.63053E-005	10	...........
	672	13.46	7.77034E-001	1.09071E-005	0.00000E+000	7.78050E-001	7.73061E-005	10	...........
	676	13.54	7.81111E-001	1.09671E-005	0.00000E+000	7.82050E-001	7.95580E-005	10	...........
	680	13.62	7.84966E-001	1.26069E-005	0.00000E+000	7.86050E-001	8.13094E-005	10	...........
	684	13.7	7.89158E-001	1.12324E-005	0.00000E+000	7.90050E-001	8.15596E-005	10	...........
	688	13.78	7.92985E-001	1.12691E-005	0.00000E+000	7.94050E-001	7.87239E-005	10	...........
	692	13.86	7.97156E-001	1.19713E-005	0.00000E+000	7.98050E-001	8.29774E-005	10	...........
	696	13.94	7.97291E-001	1.48255E-005	0.00000E+000	7.98050E-001	5.97084E-005	10	...........
	700	14.02	7.93004E-001	1.09955E-005	0.00000E+000	7.94050E-001	8.04754E-005	10	...........
	704	14.1	7.89181E-001	1.10072E-005	0.00000E+000	7.90050E-001	7.32194E-005	10	...........
	708	14.18	7.84991E-001	1.26369E-005	0.00000E+000	7.86050E-001	7.73061E-005	10	...........
	712	14.26	7.81148E-001	1.07369E-005	0.00000E+000	7.82050E-001	7.45539E-005	10	...........
	716	14.34	7.77075E-001	1.11907E-005	0.00000E+000	7.78050E-001	7.52211E-005	10	...........
	720	14.42	7.73301E-001	1.44752E-005	0.00000E+000	7.74050E-001	6.11262E-005	10	...........
	724	14.5	7.69004E-001	1.05418E-005	0.00000E+000	7.70050E-001	8.05588E-005	10	...........
	728	14.58	7.65182E-001	1.17144E-005	0.00000E+000	7.66050E-001	7.23020E-005	10	...........
	732	14.66	7.60997E-001	1.02882E-005	0.00000E+000	7.62050E-001	7.07174E-005	10	...........
	736	14.74	7.57186E-001	9.59760E-006	0.00000E+000	7.58050E-001	6.95498E-005	10	...........
	740	14.82	7.53072E-001	1.03866E-005	0.00000E+000	7.54050E-001	7.97248E-005	10	...........
	744	14.9	7.49238E-001	1.15810E-005	0.00000E+000	7.50050E-001	6.70477E-005	10	...........
	748	14.98	7.45058E-001	1.03266E-005	0.00000E+000	7.46050E-001	7.86405E-005	10	...........
	752	15.06	7.41185E-001	9.34571E-006	0.00000E+000	7.42050E-001	7.53879E-005	10	...........
	756	15.14	7.37028E-001	9.35405E-006	0.00000E+000	7.38050E-001	7.53879E-005	10	...........
	760	15.22	7.33185E-001	8.80357E-006	0.00000E+000	7.34050E-001	7.73895E-005	10	...........
	764	15.3	7.29073E-001	8.58004E-006	0.00000E+000	7.30050E-001	7.72227E-005	10	...........
	768	15.38	7.25180E-001	8.62342E-006	0.00000E+000	7.26050E-001	7.80567E-005	10	...........
	772	15.46	7.21061E-001	9.36573E-006	0.00000E+000	7.22050E-001	8.53961E-005	10	...........
	776	15.54	7.17185E-001	8.25643E-006	0.00000E+000	7.18050E-001	7.78899E-005	10	...........
	780	15.62	7.13058E-001	7.83773E-006	0.00000E+000	7.14050E-001	8.08924E-005	10	...........
	784	15.7	7.09088E-001	9.44747E-006	0.00000E+000	7.10050E-001	8.25604E-005	10	...........
	788	15.78	7.05073E-001	7.26056E-006	0.00000E+000	7.06050E-001	7.90576E-005	10	...........
	792	15.86	7.01188E-001	7.86108E-006	0.00000E+000	7.02050E-001	8.29774E-005	10	...........
	796	15.94	6.97105E-001	9.24896E-006	0.00000E+000	6.98050E-001	7.94746E-005	10	...........
	800	16.02	6.93354E-001	1.24751E-005	0.00000E+000	6.94050E-001	6.30444E-005	10	...........
	804	16.1	6.89085E-001	7.31561E-006	0.00000E+000	6.90050E-001	7.67223E-005	10	...........
	808	16.18	6.85190E-001	7.05372E-006	0.00000E+000	6.86050E-001	7.98082E-005	10	...........
	812	16.26	6.81057E-001	7.61921E-006	0.00000E+000	6.82050E-001	8.04754E-005	10	...........
	816	16.34	6.77192E-001	8.71516E-006	0.00000E+000	6.78050E-001	7.89741E-005	10	...........
	820	16.42	6.73148E-001	8.86196E-006	0.00000E+000	6.74050E-001	7.96414E-005	10	...........
	824	16.5	6.69346E-001	1.14792E-005	0.00000E+000	6.70050E-001	6.87158E-005	10	...........
	828	16.58	6.65083E-001	7.45406E-006	0.00000E+000	6.66050E-001	8.58965E-005	10	...........
	832	16.66	6.61191E-001	6.58164E-006	0.00000E+000	6.62050E-001	7.53879E-005	10	...........
	836	16.74	6.57054E-001	6.61667E-006	0.00000E+000	6.58050E-001	8.32276E-005	10	...........
	840	16.82	6.53187E-001	6.91693E-006	0.00000E+000	6.54050E-001	7.65555E-005	10	...........
	844	16.9	6.49163E-001	7.49410E-006	0.00000E+000	6.50050E-001	7.48041E-005	10	...........
	848	16.98	6.45192E-001	6.41983E-006	0.00000E+000	6.46050E-001	7.43871E-005	10	...........
	852	17.06	6.41083E-001	6.11123E-006	0.00000E+000	6.42050E-001	8.19766E-005	10	...........
	856	17.14	6.37199E-001	8.39488E-006	0.00000E+000	6.38050E-001	7.98082E-005	10	...........
	860	17.22	6.33064E-001	6.70842E-006	0.00000E+000	6.34050E-001	7.89741E-005	10	...........
	864	17.3	6.29196E-001	5.53072E-006	0.00000E+000	6.30050E-001	7.00502E-005	10	...........
	868	17.38	6.25186E-001	7.43905E-006	0.00000E+000	6.26050E-001	7.56381E-005	10	...........
	872	17.46	6.21367E-001	1.01547E-005	0.00000E+000	6.22050E-001	6.24606E-005	10	...........
	876	17.54	6.17144E-001	4.99526E-006	0.00000E+000	6.18050E-001	7.90576E-005	10	...........
	880	17.62	6.13216E-001	5.14372E-006	0.00000E+000	6.14050E-001	7.79733E-005	10	...........
	884	17.7	6.09187E-001	7.10376E-006	0.00000E+000	6.10050E-001	8.04754E-005	10	...........
	888	17.78	6.05216E-001	4.91519E-006	0.00000E+000	6.06050E-001	8.33110E-005	10	...........
	892	17.86	6.01209E-001	6.34310E-006	0.00000E+000	6.02050E-001	7.87239E-005	10	...........
	896	17.94	5.97222E-001	4.53819E-006	0.00000E+000	5.98050E-001	7.70559E-005	10	...........
	900	18.02	5.93183E-001	4.50316E-006	0.00000E+000	5.94050E-001	7.48041E-005	10	...........
	904	18.1	5.89212E-001	6.75512E-006	0.00000E+000	5.90050E-001	7.83903E-005	10	...........
	908	18.18	5.85210E-001	5.01361E-006	0.00000E+000	5.86050E-001	7.63887E-005	10	...........
	912	18.26	5.81225E-001	4.27797E-006	0.00000E+000	5.82050E-001	8.00584E-005	10	...........
	916	18.34	5.77481E-001	9.40743E-006	0.00000E+000	5.78050E-001	6.29610E-005	10	...........
	920	18.42	5.73241E-001	3.82257E-006	0.00000E+000	5.74050E-001	8.11426E-005	10	...........
	924	18.5	5.69216E-001	4.57322E-006	0.00000E+000	5.70050E-001	8.30608E-005	10	...........
	928	18.58	5.65240E-001	3.78420E-006	0.00000E+000	5.66050E-001	7.86405E-005	10	...........
	932	18.66	5.61237E-001	4.99859E-006	0.00000E+000	5.62050E-001	8.49791E-005	10	...........
	936	18.74	5.57301E-001	5.30720E-006	0.00000E+000	5.58050E-001	7.70559E-005	10	...........
	940	18.82	5.53208E-001	3.37051E-006	0.00000E+000	5.54050E-001	8.48123E-005	10	...........
	944	18.9	5.49250E-001	5.98112E-006	0.00000E+000	5.50050E-001	8.03920E-005	10	...........
	948	18.98	5.45232E-001	3.51897E-006	0.00000E+000	5.46050E-001	7.86405E-005	10	...........
	952	19.06	5.41291E-001	4.76005E-006	0.00000E+000	5.42050E-001	7.13012E-005	10	...........
	956	19.14	5.37259E-001	3.25708E-006	0.00000E+000	5.38050E-001	7.98916E-005	10	...........
	960	19.22	5.33268E-001	2.96349E-006	0.00000E+000	5.34050E-001	7.57215E-005	10	...........
	964	19.3	5.29228E-001	2.81836E-006	0.00000E+000	5.30050E-001	8.07256E-005	10	...........
	968	19.38	5.25255E-001	4.36638E-006	0.00000E+000	5.26050E-001	8.23936E-005	10	...........
	972	19.46	5.21267E-001	3.82090E-006	0.00000E+000	5.22050E-001	8.03086E-005	10	...........
	976	19.54	5.17449E-001	6.75345E-006	0.00000E+000	5.18050E-001	6.38785E-005	10	...........
	980	19.62	5.13230E-001	1.96428E-006	0.00000E+000	5.14050E-001	8.00584E-005	10	...........
	984	19.7	5.09292E-001	2.78834E-006	0.00000E+000	5.10050E-001	7.26356E-005	10	...........
	988	19.78	5.05276E-001	2.52310E-006	0.00000E+000	5.06050E-001	7.68057E-005	10	...........
	992	19.86	5.01321E-001	3.27876E-006	0.00000E+000	5.02050E-001	7.99750E-005	10	...........
	996	19.94	4.97442E-001	6.27470E-006	0.00000E+000	4.98050E-001	6.64639E-005	10	...........
	1000	20.02	4.93302E-001	1.48220E-006	0.00000E+000	4.94050E-001	8.17264E-005	10	...........
	1004	20.1	4.89289E-001	2.95181E-006	0.00000E+000	4.90050E-001	7.70559E-005	10	...........
	1008	20.18	4.85328E-001	1.96595E-006	0.00000E+000	4.86050E-001	8.02252E-005	10	...........
	1012	20.26	4.81344E-001	2.75331E-006	0.00000E+000	4.82050E-001	7.60551E-005	10	...........
	1016	20.34	4.77350E-001	2.12109E-006	0.00000E+000	4.78050E-001	8.33944E-005	10	...........
	1020	20.42	4.73266E-001	1.05516E-006	0.00000E+000	4.74050E-001	8.60633E-005	10	...........
	1024	20.5	4.69326E-001	9.36724E-007	0.00000E+000	4.70050E-001	8.74811E-005	10	...........
	1028	20.58	4.65309E-001	2.75664E-006	0.00000E+000	4.66050E-001	8.62301E-005	10	...........
	1032	20.66	4.61317E-001	1.33707E-006	0.00000E+000	4.62050E-001	8.39782E-005	10	...........
	1036	20.74	4.57556E-001	5.43898E-006	0.00000E+000	4.58050E-001	6.09594E-005	10	...........
	1040	20.82	4.53316E-001	9.40060E-007	0.00000E+000	4.54050E-001	8.37280E-005	10	...........
	1044	20.9	4.49248E-001	7.74916E-007	0.00000E+000	4.50050E-001	8.39782E-005	10	...........
	1048	20.98	4.45339E-001	2.53812E-006	0.00000E+000	4.46050E-001	8.17264E-005	10	...........
	1052	21.06	4.41337E-001	1.88422E-006	0.00000E+000	4.42050E-001	8.02252E-005	10	...........
	1056	21.14	4.37494E-001	5.14539E-006	0.00000E+000	4.38050E-001	6.54631E-005	10	...........
	1060	21.22	4.33336E-001	2.07755E-007	0.00000E+000	4.34050E-001	8.41450E-005	10	...........
	1064	21.3	4.29349E-001	1.21030E-006	0.00000E+000	4.30050E-001	8.52293E-005	10	...........
	1068	21.38	4.25296E-001	3.87912E-007	0.00000E+000	4.26050E-001	8.43118E-005	10	...........
	1072	21.46	4.21337E-001	5.43047E-007	0.00000E+000	4.22050E-001	8.54795E-005	10	...........
	1076	21.54	4.17357E-001	1.62566E-006	0.00000E+000	4.18050E-001	8.52293E-005	10	...........
	1080	21.62	4.13533E-001	5.28217E-006	0.00000E+000	4.14050E-001	5.97084E-005	10	...........
	1084	21.7	4.09368E-001	3.82908E-007	0.00000E+000	4.10050E-001	8.86487E-005	10	...........
	1088	21.78	4.05400E-001	9.08886E-010	0.00000E+000	4.06050E-001	8.24770E-005	10	...........
	1092	21.86	4.01365E-001	1.06183E-006	0.00000E+000	4.02050E-001	8.53961E-005	10	...........
	1096	21.94	3.97362E-001	3.47878E-007	0.00000E+000	3.98050E-001	7.86405E-005	10	...........
	1100	22.02	3.93539E-001	3.53565E-006	0.00000E+000	3.94050E-001	6.95498E-005	10	...........
	1104	22.1	3.89382E-001	1.69389E-007	0.00000E+000	3.90050E-001	8.53961E-005	10	...........
	1108	22.18	3.85358E-001	-2.52645E-007	0.00000E+000	3.86050E-001	8.38114E-005	10	...........
	1112	22.26	3.81413E-001	1.35876E-006	0.00000E+000	3.82050E-001	8.45620E-005	10	...........
	1116	22.34	3.77409E-001	5.78078E-007	0.00000E+000	3.78050E-001	7.78065E-005	10	...........
	1120	22.42	3.73579E-001	2.81169E-006	0.00000E+000	3.74050E-001	6.41287E-005	10	...........
	1124	22.5	3.69359E-001	-1.33859E-006	0.00000E+000	3.70050E-001	9.36528E-005	10	...........
	1128	22.58	3.65411E-001	-1.42533E-006	0.00000E+000	3.66050E-001	8.65637E-005	10	...........
	1132	22.66	3.61377E-001	3.77904E-007	0.00000E+000	3.62050E-001	8.29774E-005	10	...........
	1136	22.74	3.57456E-001	-2.42738E-009	0.00000E+000	3.58050E-001	7.18016E-005	10	...........
	1140	22.82	3.53711E-001	3.29044E-006	0.00000E+000	3.54050E-001	6.77983E-005	10	...........
	1144	22.9	3.49439E-001	-1.36361E-006	0.00000E+000	3.50050E-001	7.83069E-005	10	...........
	1148	22.98	3.45370E-001	-1.73227E-006	0.00000E+000	3.46050E-001	8.82317E-005	10	...........
	1152	23.06	3.41412E-001	-1.07680E-008	0.00000E+000	3.42050E-001	8.71475E-005	10	...........
	1156	23.14	3.37391E-001	-1.77063E-006	0.00000E+000	3.38050E-001	9.26520E-005	10	...........
	1160	23.22	3.33450E-001	-8.36487E-007	0.00000E+000	3.34050E-001	8.52293E-005	10	...........
	1164	23.3	3.29480E-001	-1.87406E-006	0.00000E+000	3.30050E-001	7.95580E-005	10	...........
	1168	23.38	3.25492E-001	-2.32945E-006	0.00000E+000	3.26050E-001	7.93912E-005	10	...........
	1172	23.46	3.21433E-001	-2.28275E-006	0.00000E+000	3.22050E-001	8.02252E-005	10	...........
	1176	23.54	3.17432E-001	-1.04167E-006	0.00000E+000	3.18050E-001	8.62301E-005	10	...........
	1180	23.62	3.13428E-001	-1.48705E-006	0.00000E+000	3.14050E-001	7.86405E-005	10	...........
	1184	23.7	3.09627E-001	1.59063E-006	0.00000E+000	3.10050E-001	6.81320E-005	10	...........
	1188	23.78	3.05471E-001	-3.26360E-006	0.00000E+000	3.06050E-001	7.97248E-005	10	...........
	1192	23.86	3.01486E-001	-2.05255E-006	0.00000E+000	3.02050E-001	7.76397E-005	10	...........
	1196	23.94	2.97402E-001	-3.41039E-006	0.00000E+000	2.98050E-001	8.31442E-005	10	...........
	1200	24.02	2.93451E-001	-2.72980E-006	0.00000E+000	2.94050E-001	8.05588E-005	10	...........
	1204	24.1	2.89483E-001	-1.58380E-006	0.00000E+000	2.90050E-001	7.98916E-005	10	...........
	1208	24.18	2.85669E-001	1.30705E-006	0.00000E+000	2.86050E-001	5.72897E-005	10	...........
	1212	24.26	2.81483E-001	-3.52883E-006	0.00000E+000	2.82050E-001	8.18932E-005	10	...........
	1216	24.34	2.77550E-001	-3.64393E-006	0.00000E+000	2.78050E-001	7.44705E-005	10	...........
	1220	24.42	2.73517E-001	-3.40205E-006	0.00000E+000	2.74050E-001	7.63053E-005	10	...........
	1224	24.5	2.69431E-001	-1.45536E-006	0.00000E+000	2.70050E-001	7.63887E-005	10	...........
	1228	24.58	2.65491E-001	-2.04421E-006	0.00000E+000	2.66050E-001	7.67223E-005	10	...........
	1232	24.66	2.61688E-001	9.61745E-007	0.00000E+000	2.62050E-001	5.47043E-005	10	...........
	1236	24.74	2.57493E-001	-3.59055E-006	0.00000E+000	2.58050E-001	7.83903E-005	10	...........
	1240	24.82	2.53556E-001	-3.73234E-006	0.00000E+000	2.54050E-001	7.73895E-005	10	...........
	1244	24.9	2.49500E-001	-3.85912E-006	0.00000E+000	2.50050E-001	7.87239E-005	10	...........
	1248	24.98	2.45540E-001	-3.95253E-006	0.00000E+000	2.46050E-001	7.66389E-005	10	...........
	1252	25.06	2.41501E-001	-2.35781E-006	0.00000E+000	2.42050E-001	7.01336E-005	10	...........
	1256	25.14	2.37529E-001	-3.97255E-006	0.00000E+000	2.38050E-001	7.68891E-005	10	...........
	1260	25.22	2.33495E-001	-4.39792E-006	0.00000E+000	2.34050E-001	8.22268E-005	10	...........
	1264	25.3	2.29572E-001	-2.14262E-006	0.00000E+000	2.30050E-001	7.71393E-005	10	...........
	1268	25.38	2.25605E-001	-4.27281E-006	0.00000E+000	2.26050E-001	7.51377E-005	10	...........
	1272	25.46	2.21589E-001	-3.17519E-006	0.00000E+000	2.22050E-001	7.59717E-005	10	...........
	1276	25.54	2.17717E-001	2.99502E-007	0.00000E+000	2.18050E-001	6.70477E-005	10	...........
	1280	25.62	2.13540E-001	-4.65147E-006	0.00000E+000	2.14050E-001	7.94746E-005	10	...........
	1284	25.7	2.09488E-001	-4.20776E-006	0.00000E+000	2.10050E-001	7.86405E-005	10	...........
	1288	25.78	2.05562E-001	-4.59810E-006	0.00000E+000	2.06050E-001	7.99750E-005	10	...........
	1292	25.86	2.01599E-001	-3.28028E-006	0.00000E+000	2.02050E-001	6.93830E-005	10	...........
	1296	25.94	1.97595E-001	-4.55472E-006	0.00000E+000	1.98050E-001	7.61385E-005	10	...........
	1300	26.02	1.93618E-001	-4.19274E-006	0.00000E+000	1.94050E-001	6.87158E-005	10	...........
	1304	26.1	1.89567E-001	-4.67650E-006	0.00000E+000	1.90050E-001	7.57215E-005	10	...........
	1308	26.18	1.85567E-001	-2.53463E-006	0.00000E+000	1.86050E-001	7.40535E-005	10	...........
	1312	26.26	1.81596E-001	-4.37624E-006	0.00000E+000	1.82050E-001	7.38032E-005	10	...........
	1316	26.34	1.77798E-001	-8.11465E-007	0.00000E+000	1.78050E-001	6.39619E-005	10	...........
	1320	26.42	1.73604E-001	-4.57975E-006	0.00000E+000	1.74050E-001	7.98082E-005	10	...........
	1324	26.5	1.69551E-001	-4.82496E-006	0.00000E+000	1.70050E-001	7.87239E-005	10	...........
	1328	26.58	1.65576E-001	-3.55719E-006	0.00000E+000	1.66050E-001	7.73895E-005	10	...........
	1332	26.66	1.61600E-001	-4.37290E-006	0.00000E+000	1.62050E-001	7.38866E-005	10	...........
	1336	26.74	1.57750E-001	-1.39864E-006	0.00000E+000	1.58050E-001	6.07092E-005	10	...........
	1340	26.82	1.53581E-001	-5.58395E-006	0.00000E+000	1.54050E-001	7.73895E-005	10	...........
	1344	26.9	1.49616E-001	-5.27535E-006	0.00000E+000	1.50050E-001	7.44705E-005	10	...........
	1348	26.98	1.45607E-001	-4.15438E-006	0.00000E+000	1.46050E-001	7.77231E-005	10	...........
	1352	27.06	1.41595E-001	-5.26034E-006	0.00000E+000	1.42100E-001	7.08842E-005	10	...........
	1356	27.14	1.37681E-001	-4.12101E-006	0.00000E+000	1.38100E-001	7.87239E-005	10	...........
	1360	27.22	1.33754E-001	-3.48379E-006	0.00000E+000	1.34100E-001	7.06340E-005	10	...........
	1364	27.3	1.29732E-001	-5.57228E-006	0.00000E+000	1.30100E-001	7.58883E-005	10	...........
	1368	27.38	1.25693E-001	-3.60056E-006	0.00000E+000	1.26100E-001	7.96414E-005	10	...........
	1372	27.46	1.21764E-001	-5.70239E-006	0.00000E+000	1.22100E-001	7.76397E-005	10	...........
	1376	27.54	1.17705E-001	-5.07684E-006	0.00000E+000	1.18100E-001	7.73061E-005	10	...........
	1380	27.62	1.13853E-001	-1.78565E-006	0.00000E+000	1.14100E-001	6.07926E-005	10	...........
	1384	27.7	1.09671E-001	-5.84752E-006	0.00000E+000	1.10100E-001	7.65555E-005	10	...........
	1388	27.78	1.05701E-001	-6.02100E-006	0.00000E+000	1.06100E-001	8.02252E-005	10	...........
	1392	27.86	1.01720E-001	-5.41547E-006	0.00000E+000	1.02100E-001	8.17264E-005	10	...........
	1396	27.94	9.78832E-002	-6.20950E-006	0.00000E+000	9.81000E-002	8.22268E-005	10	...........
	1400	28.02	9.37143E-002	-5.75077E-006	0.00000E+000	9.41000E-002	7.49709E-005	10	...........
	1404	28.1	8.97090E-002	-5.46885E-006	0.00000E+000	9.01000E-002	7.61385E-005	10	...........
	1408	28.18	8.58569E-002	-2.27107E-006	0.00000E+000	8.61000E-002	6.53797E-005	10	...........
	1412	28.26	8.17354E-002	-5.98931E-006	0.00000E+000	8.21000E-002	7.91409E-005	10	...........
	1416	28.34	7.77126E-002	-6.18781E-006	0.00000E+000	7.81000E-002	7.70559E-005	10	...........
	1420	28.42	7.38736E-002	-4.49634E-006	0.00000E+000	7.41000E-002	7.85571E-005	10	...........
	1424	28.5	6.97470E-002	-5.99264E-006	0.00000E+000	7.01000E-002	8.18932E-005	10	...........
	1428	28.58	6.59725E-002	-5.42215E-006	0.00000E+000	6.61000E-002	7.28024E-005	10	...........
	1432	28.66	6.18844E-002	-2.39451E-006	0.00000E+000	6.21000E-002	6.38785E-005	10	...........
	1436	28.74	5.77647E-002	-6.51476E-006	0.00000E+000	5.81000E-002	8.31442E-005	10	...........
	1440	28.82	5.37454E-002	-5.60397E-006	0.00000E+000	5.41000E-002	7.59717E-005	10	...........
	1444	28.9	4.98503E-002	-6.34795E-006	0.00000E+000	5.01000E-002	7.95580E-005	10	...........
	1448	28.98	4.57180E-002	-6.33628E-006	0.00000E+000	4.61000E-002	7.73895E-005	10	...........
	1452	29.06	4.18983E-002	-5.73575E-006	0.00000E+000	4.21000E-002	7.83069E-005	10	...........
	1456	29.14	3.77331E-002	-5.76911E-006	0.00000E+000	3.81000E-002	8.04754E-005	10	...........
	1460	29.22	3.39025E-002	-3.91917E-006	0.00000E+000	3.41000E-002	6.55465E-005	10	...........
	1464	29.3	2.97513E-002	-6.42302E-006	0.00000E+000	3.01000E-002	8.37280E-005	10	...........
	1468	29.38	2.59173E-002	-6.60317E-006	0.00000E+000	2.61000E-002	7.57215E-005	10	...........
	1472	29.46	2.17665E-002	-5.94427E-006	0.00000E+000	2.21000E-002	7.68057E-005	10	...........
	1476	29.54	1.79648E-002	-6.48140E-006	0.00000E+000	1.81000E-002	7.54713E-005	10	...........
	1480	29.62	1.37041E-002	-6.20283E-006	0.00000E+000	1.41000E-002	7.39701E-005	10	...........
	1484	29.7	9.84119E-003	-4.76824E-006	0.00000E+000	1.01000E-002	7.21352E-005	10	...........
	1488	29.78	5.74042E-003	-6.70827E-006	0.00000E+000	6.10001E-003	7.87239E-005	10	...........
	1492	29.86	1.84699E-003	-5.90757E-006	0.00000E+000	2.10001E-003	7.38866E-005	10	...........
	1496	29.94	-2.20007E-003	-6.56481E-006	0.00000E+000	-1.89999E-003	7.96414E-005	10	...........
	1500	30.02	-6.07208E-003	-6.57815E-006	0.00000E+000	-5.90000E-003	7.78899E-005	10	...........
	1504	30.1	-1.00503E-002	-3.21689E-006	0.00000E+000	-9.89999E-003	6.27108E-005	10	...........
	1508	30.18	-1.42109E-002	-7.15198E-006	0.00000E+000	-1.39000E-002	8.08924E-005	10	...........
	1512	30.26	-1.82271E-002	-6.68825E-006	0.00000E+000	-1.79000E-002	8.39782E-005	10	...........
	1516	30.34	-2.20883E-002	-6.36463E-006	0.00000E+000	-2.19000E-002	7.34697E-005	10	...........
	1520	30.42	-2.61832E-002	-6.18114E-006	0.00000E+000	-2.59000E-002	7.23020E-005	10	...........
	1524	30.5	-3.00288E-002	-6.87841E-006	0.00000E+000	-2.99000E-002	7.89741E-005	10	...........
	1528	30.58	-3.41078E-002	-5.40213E-006	0.00000E+000	-3.39000E-002	7.39701E-005	10	...........
	1532	30.66	-3.81720E-002	-6.72662E-006	0.00000E+000	-3.79000E-002	8.09758E-005	10	...........
	1536	30.74	-4.22014E-002	-5.86587E-006	0.00000E+000	-4.19000E-002	7.98082E-005	10	...........
	1540	30.82	-4.61301E-002	-7.32714E-006	0.00000E+000	-4.59000E-002	7.24688E-005	10	...........
	1544	30.9	-5.01971E-002	-7.11195E-006	0.00000E+000	-4.99000E-002	8.18098E-005	10	...........
	1548	30.98	-5.40530E-002	-7.37385E-006	0.00000E+000	-5.39000E-002	8.10592E-005	10	...........
	1552	31.06	-5.81994E-002	-7.29211E-006	0.00000E+000	-5.79000E-002	8.33110E-005	10	...........
	1556	31.14	-6.20947E-002	-7.12529E-006	0.00000E+000	-6.19000E-002	8.12260E-005	10	...........
	1560	31.22	-6.61876E-002	-6.39800E-006	0.00000E+000	-6.59000E-002	7.33028E-005	10	...........
	1564	31.3	-7.00860E-002	-6.53979E-006	0.00000E+000	-6.99000E-002	7.40535E-005	10	...........
	1568	31.38	-7.39922E-002	-3.52216E-006	0.00000E+000	-7.39000E-002	6.36283E-005	10	...........
	1572	31.46	-7.80490E-002	-7.72248E-006	0.00000E+000	-7.79000E-002	7.62219E-005	10	...........
	1576	31.54	-8.22018E-002	-6.11942E-006	0.00000E+000	-8.19000E-002	7.47207E-005	10	...........
	1580	31.62	-8.60304E-002	-7.28043E-006	0.00000E+000	-8.59000E-002	7.78899E-005	10	...........
	1584	31.7	-9.01445E-002	-6.81336E-006	0.00000E+000	-8.99000E-002	7.89741E-005	10	...........
	1588	31.78	-9.40561E-002	-6.45638E-006	0.00000E+000	-9.39000E-002	7.65555E-005	10	...........
	1592	31.86	-9.81754E-002	-7.26375E-006	0.00000E+000	-9.79000E-002	8.08924E-005	10	...........
[...]
	12587	251.76	-3.06943E-001	-6.98351E-006	0.00000E+000	-3.07000E-001	7.15514E-005	10	...........
	12589	251.8	-3.05039E-001	-5.68738E-006	0.00000E+000	-3.05000E-001	6.86324E-005	10	...........
	12591	251.84	-3.03050E-001	-6.86173E-006	0.00000E+000	-3.03000E-001	7.23854E-005	10	...........
	12593	251.88	-3.01094E-001	-6.76498E-006	0.00000E+000	-3.01000E-001	7.56381E-005	10	...........
	12595	251.92	-2.99028E-001	-6.30124E-006	0.00000E+000	-2.99000E-001	7.76397E-005	10	...........
	12597	251.96	-2.96927E-001	-4.47299E-006	0.00000E+000	-2.97000E-001	5.64557E-005	10	...........
	12599	252	-2.94924E-001	-3.32699E-006	0.00000E+000	-2.95000E-001	6.02088E-005	10	...........
	12601	252.04	-2.93127E-001	-7.07692E-006	0.00000E+000	-2.93000E-001	8.03086E-005	10	...........
	12603	252.08	-2.90935E-001	-6.95848E-006	0.00000E+000	-2.91000E-001	7.26356E-005	10	...........
	12605	252.12	-2.89033E-001	-6.88008E-006	0.00000E+000	-2.89000E-001	7.60551E-005	10	...........
	12607	252.16	-2.87082E-001	-7.14031E-006	0.00000E+000	-2.87000E-001	7.70559E-005	10	...........
	12609	252.2	-2.85086E-001	-6.86507E-006	0.00000E+000	-2.85000E-001	8.45620E-005	10	...........
	12611	252.24	-2.82998E-001	-7.02521E-006	0.00000E+000	-2.83000E-001	7.10510E-005	10	...........
	12613	252.28	-2.81058E-001	-5.51389E-006	0.00000E+000	-2.81000E-001	7.68891E-005	10	...........
	12615	252.32	-2.79063E-001	-5.31539E-006	0.00000E+000	-2.79000E-001	7.78065E-005	10	...........
	12617	252.36	-2.77098E-001	-6.94347E-006	0.00000E+000	-2.77000E-001	8.33110E-005	10	...........
	12619	252.4	-2.75069E-001	-6.83671E-006	0.00000E+000	-2.75000E-001	7.44705E-005	10	...........
	12621	252.44	-2.73076E-001	-6.29457E-006	0.00000E+000	-2.73000E-001	7.63887E-005	10	...........
	12623	252.48	-2.71106E-001	-6.72995E-006	0.00000E+000	-2.71000E-001	7.73895E-005	10	...........
	12625	252.52	-2.69131E-001	-6.66656E-006	0.00000E+000	-2.69000E-001	8.46455E-005	10	...........
	12627	252.56	-2.66874E-001	-3.25693E-006	0.00000E+000	-2.67000E-001	5.37869E-005	10	...........
	12629	252.6	-2.64973E-001	-4.44963E-006	0.00000E+000	-2.65000E-001	7.36364E-005	10	...........
	12631	252.64	-2.63068E-001	-6.83171E-006	0.00000E+000	-2.63000E-001	7.93078E-005	10	...........
	12633	252.68	-2.61098E-001	-7.08359E-006	0.00000E+000	-2.61000E-001	7.72227E-005	10	...........
	12635	252.72	-2.59024E-001	-6.85172E-006	0.00000E+000	-2.59000E-001	6.64639E-005	10	...........
	12637	252.76	-2.57068E-001	-5.14023E-006	0.00000E+000	-2.57000E-001	7.62219E-005	10	...........
	12639	252.8	-2.55081E-001	-5.82083E-006	0.00000E+000	-2.55000E-001	7.20518E-005	10	...........
	12641	252.84	-2.53132E-001	-6.43803E-006	0.00000E+000	-2.53000E-001	7.47207E-005	10	...........
	12643	252.88	-2.51076E-001	-5.66235E-006	0.00000E+000	-2.51000E-001	7.03004E-005	10	...........
	12645	252.92	-2.49049E-001	-5.05349E-006	0.00000E+000	-2.49000E-001	6.71311E-005	10	...........
	12647	252.96	-2.46934E-001	-2.02085E-006	0.00000E+000	-2.47000E-001	5.57051E-005	10	...........
	12649	253	-2.45135E-001	-6.32460E-006	0.00000E+000	-2.45000E-001	7.73895E-005	10	...........
	12651	253.04	-2.43123E-001	-6.10941E-006	0.00000E+000	-2.43000E-001	6.87992E-005	10	...........
	12653	253.08	-2.41108E-001	-6.55647E-006	0.00000E+000	-2.41000E-001	7.63887E-005	10	...........
	12655	253.12	-2.39066E-001	-6.33794E-006	0.00000E+000	-2.39000E-001	7.52211E-005	10	...........
	12657	253.16	-2.37126E-001	-6.18614E-006	0.00000E+000	-2.37000E-001	7.96414E-005	10	...........
	12659	253.2	-2.34961E-001	-6.00432E-006	0.00000E+000	-2.35000E-001	7.58049E-005	10	...........
	12661	253.24	-2.33066E-001	-5.99431E-006	0.00000E+000	-2.33000E-001	7.41369E-005	10	...........
	12663	253.28	-2.31071E-001	-5.39045E-006	0.00000E+000	-2.31000E-001	8.09758E-005	10	...........
	12665	253.32	-2.29149E-001	-4.26781E-006	0.00000E+000	-2.29000E-001	7.93078E-005	10	...........
	12667	253.36	-2.27090E-001	-5.78746E-006	0.00000E+000	-2.27000E-001	6.95498E-005	10	...........
	12669	253.4	-2.25112E-001	-5.62899E-006	0.00000E+000	-2.25000E-001	7.53879E-005	10	...........
	12671	253.44	-2.23114E-001	-4.66816E-006	0.00000E+000	-2.23000E-001	7.42203E-005	10	...........
	12673	253.48	-2.21137E-001	-5.19695E-006	0.00000E+000	-2.21000E-001	7.54713E-005	10	...........
	12675	253.52	-2.19154E-001	-5.88755E-006	0.00000E+000	-2.19000E-001	7.68891E-005	10	...........
	12677	253.56	-2.17008E-001	-2.33779E-006	0.00000E+000	-2.17000E-001	5.94582E-005	10	...........
	12679	253.6	-2.15020E-001	-2.65140E-006	0.00000E+000	-2.15000E-001	5.90412E-005	10	...........
	12681	253.64	-2.13172E-001	-5.68404E-006	0.00000E+000	-2.13000E-001	7.70559E-005	10	...........
	12683	253.68	-2.11063E-001	-5.86086E-006	0.00000E+000	-2.11000E-001	6.52963E-005	10	...........
	12685	253.72	-2.09092E-001	-5.60230E-006	0.00000E+000	-2.09000E-001	7.31360E-005	10	...........
	12687	253.76	-2.07085E-001	-3.54551E-006	0.00000E+000	-2.07000E-001	7.46373E-005	10	...........
	12689	253.8	-2.05134E-001	-3.92584E-006	0.00000E+000	-2.05000E-001	7.23020E-005	10	...........
	12691	253.84	-2.03133E-001	-5.35876E-006	0.00000E+000	-2.03000E-001	7.03838E-005	10	...........
	12693	253.88	-2.01112E-001	-4.14770E-006	0.00000E+000	-2.01000E-001	6.94664E-005	10	...........
	12695	253.92	-1.99138E-001	-4.80828E-006	0.00000E+000	-1.99000E-001	7.46373E-005	10	...........
	12697	253.96	-1.96992E-001	-7.18051E-007	0.00000E+000	-1.97000E-001	5.43707E-005	10	...........
	12699	254	-1.95177E-001	-5.37877E-006	0.00000E+000	-1.95000E-001	7.37198E-005	10	...........
	12701	254.04	-1.93185E-001	-5.38378E-006	0.00000E+000	-1.93000E-001	8.19766E-005	10	...........
	12703	254.08	-1.91212E-001	-5.29704E-006	0.00000E+000	-1.91000E-001	7.08008E-005	10	...........
	12705	254.12	-1.89255E-001	-5.38712E-006	0.00000E+000	-1.89000E-001	7.83903E-005	10	...........
	12707	254.16	-1.87151E-001	-5.28870E-006	0.00000E+000	-1.87000E-001	7.46373E-005	10	...........
	12709	254.2	-1.85124E-001	-5.13857E-006	0.00000E+000	-1.85000E-001	6.94664E-005	10	...........
	12711	254.24	-1.83125E-001	-5.45551E-006	0.00000E+000	-1.83000E-001	7.23854E-005	10	...........
	12713	254.28	-1.81161E-001	-5.49721E-006	0.00000E+000	-1.81000E-001	7.53045E-005	10	...........
	12715	254.32	-1.79108E-001	-4.54138E-006	0.00000E+000	-1.79000E-001	7.25522E-005	10	...........
	12717	254.36	-1.77148E-001	-3.19688E-006	0.00000E+000	-1.77000E-001	7.27190E-005	10	...........
	12719	254.4	-1.75150E-001	-4.83664E-006	0.00000E+000	-1.75000E-001	6.76315E-005	10	...........
	12721	254.44	-1.73214E-001	-5.33540E-006	0.00000E+000	-1.73000E-001	7.52211E-005	10	...........
	12723	254.48	-1.71159E-001	-4.21276E-006	0.00000E+000	-1.71000E-001	6.82987E-005	10	...........
	12725	254.52	-1.69183E-001	-4.77325E-006	0.00000E+000	-1.69000E-001	7.61385E-005	10	...........
	12727	254.56	-1.67149E-001	-3.71399E-006	0.00000E+000	-1.67000E-001	6.63805E-005	10	...........
	12729	254.6	-1.65014E-001	-7.99788E-007	0.00000E+000	-1.65000E-001	5.96250E-005	10	...........
	12731	254.64	-1.63196E-001	-5.19695E-006	0.00000E+000	-1.63000E-001	7.09676E-005	10	...........
	12733	254.68	-1.61191E-001	-4.91337E-006	0.00000E+000	-1.61000E-001	7.53879E-005	10	...........
	12735	254.72	-1.59192E-001	-5.00845E-006	0.00000E+000	-1.59000E-001	8.03920E-005	10	...........
	12737	254.76	-1.57225E-001	-4.05095E-006	0.00000E+000	-1.57000E-001	7.70559E-005	10	...........
	12739	254.8	-1.55191E-001	-2.74815E-006	0.00000E+000	-1.55000E-001	6.77983E-005	10	...........
	12741	254.84	-1.53173E-001	-4.41127E-006	0.00000E+000	-1.53000E-001	8.23936E-005	10	...........
	12743	254.88	-1.51160E-001	-4.11601E-006	0.00000E+000	-1.51000E-001	7.79733E-005	10	...........
	12745	254.92	-1.49188E-001	-3.78906E-006	0.00000E+000	-1.49000E-001	7.58049E-005	10	...........
	12747	254.96	-1.46964E-001	-5.87937E-007	0.00000E+000	-1.47000E-001	5.93748E-005	10	...........
	12749	255	-1.45142E-001	-3.61057E-006	0.00000E+000	-1.45000E-001	7.63887E-005	10	...........
	12751	255.04	-1.43204E-001	-4.88001E-006	0.00000E+000	-1.43000E-001	7.38032E-005	10	...........
	12753	255.08	-1.41247E-001	-5.14023E-006	0.00000E+000	-1.41000E-001	7.67223E-005	10	...........
	12755	255.12	-1.39198E-001	-4.83997E-006	0.00000E+000	-1.39000E-001	7.15514E-005	10	...........
	12757	255.16	-1.37177E-001	-4.60477E-006	0.00000E+000	-1.37000E-001	7.85571E-005	10	...........
	12759	255.2	-1.35175E-001	-4.84998E-006	0.00000E+000	-1.35000E-001	6.98834E-005	10	...........
	12761	255.24	-1.33244E-001	-4.69818E-006	0.00000E+000	-1.33000E-001	7.44705E-005	10	...........
	12763	255.28	-1.31190E-001	-4.51969E-006	0.00000E+000	-1.31000E-001	6.81320E-005	10	...........
	12765	255.32	-1.29174E-001	-3.44042E-006	0.00000E+000	-1.29000E-001	7.85571E-005	10	...........
	12767	255.36	-1.27205E-001	-2.56799E-006	0.00000E+000	-1.27000E-001	7.23854E-005	10	...........
	12769	255.4	-1.25265E-001	-4.42795E-006	0.00000E+000	-1.25000E-001	7.72227E-005	10	...........
	12771	255.44	-1.23250E-001	-4.49467E-006	0.00000E+000	-1.23000E-001	6.77149E-005	10	...........
	12773	255.48	-1.21178E-001	-3.63893E-006	0.00000E+000	-1.21000E-001	7.69725E-005	10	...........
	12775	255.52	-1.19228E-001	-4.38791E-006	0.00000E+000	-1.19000E-001	7.29692E-005	10	...........
	12777	255.56	-1.17249E-001	-4.72154E-006	0.00000E+000	-1.17000E-001	7.39701E-005	10	...........
	12779	255.6	-1.15253E-001	-4.39792E-006	0.00000E+000	-1.15000E-001	7.11344E-005	10	...........
	12781	255.64	-1.13052E-001	-8.75015E-008	0.00000E+000	-1.13000E-001	5.05342E-005	10	...........
	12783	255.68	-1.11054E-001	-4.62828E-007	0.00000E+000	-1.11000E-001	5.27861E-005	10	...........
	12785	255.72	-1.09097E-001	-7.08042E-007	0.00000E+000	-1.09000E-001	6.11262E-005	10	...........
	12787	255.76	-1.07184E-001	-4.35455E-006	0.00000E+000	-1.07000E-001	7.11344E-005	10	...........
	12789	255.8	-1.05195E-001	-4.62979E-006	0.00000E+000	-1.05000E-001	7.61385E-005	10	...........
	12791	255.84	-1.03200E-001	-4.64147E-006	0.00000E+000	-1.03000E-001	7.04672E-005	10	...........
	12793	255.88	-1.01323E-001	-4.07097E-006	0.00000E+000	-1.01000E-001	7.74729E-005	10	...........
	12795	255.92	-9.92541E-002	-1.88573E-006	0.00000E+000	-9.90000E-002	8.07256E-005	10	...........
	12797	255.96	-9.72354E-002	-3.52049E-006	0.00000E+000	-9.70000E-002	7.48041E-005	10	...........
	12799	256	-9.52462E-002	-4.40459E-006	0.00000E+000	-9.50000E-002	6.91328E-005	10	...........
	12801	256.04	-9.32847E-002	-4.39125E-006	0.00000E+000	-9.30000E-002	7.82235E-005	10	...........
	12803	256.08	-9.12975E-002	-4.56140E-006	0.00000E+000	-9.10000E-002	6.98000E-005	10	...........
	12805	256.12	-8.92498E-002	-4.19441E-006	0.00000E+000	-8.90000E-002	7.62219E-005	10	...........
	12807	256.16	-8.72061E-002	-3.40205E-006	0.00000E+000	-8.70000E-002	6.96332E-005	10	...........
	12809	256.2	-8.53409E-002	-3.30697E-006	0.00000E+000	-8.50000E-002	8.48957E-005	10	...........
	12811	256.24	-8.30626E-002	-1.01164E-006	0.00000E+000	-8.30000E-002	6.21270E-005	10	...........
	12813	256.28	-8.10482E-002	9.43234E-008	0.00000E+000	-8.10000E-002	6.51295E-005	10	...........
	12815	256.32	-7.92090E-002	-3.78239E-006	0.00000E+000	-7.90000E-002	7.74729E-005	10	...........
	12817	256.36	-7.72977E-002	-4.11935E-006	0.00000E+000	-7.70000E-002	7.90576E-005	10	...........
	12819	256.4	-7.52708E-002	-4.22944E-006	0.00000E+000	-7.50000E-002	7.73895E-005	10	...........
	12821	256.44	-7.32232E-002	-3.90249E-006	0.00000E+000	-7.30000E-002	7.69725E-005	10	...........
	12823	256.48	-7.12607E-002	-2.67642E-006	0.00000E+000	-7.10000E-002	7.78899E-005	10	...........
	12825	256.52	-6.93014E-002	-1.68723E-006	0.00000E+000	-6.90000E-002	7.45539E-005	10	...........
	12827	256.56	-6.73010E-002	-3.98256E-006	0.00000E+000	-6.70000E-002	7.33862E-005	10	...........
	12829	256.6	-6.52897E-002	-3.57887E-006	0.00000E+000	-6.50000E-002	7.76397E-005	10	...........
	12831	256.64	-6.33431E-002	-3.50214E-006	0.00000E+000	-6.30000E-002	7.43037E-005	10	...........
	12833	256.68	-6.13927E-002	-3.62225E-006	0.00000E+000	-6.10000E-002	7.64721E-005	10	...........
	12835	256.72	-5.92652E-002	-3.34200E-006	0.00000E+000	-5.90000E-002	7.08008E-005	10	...........
	12837	256.76	-5.72169E-002	-2.73647E-006	0.00000E+000	-5.70000E-002	8.08924E-005	10	...........
	12839	256.8	-5.52295E-002	-2.49293E-006	0.00000E+000	-5.50000E-002	7.41369E-005	10	...........
	12841	256.84	-5.31126E-002	6.06436E-007	0.00000E+000	-5.30000E-002	6.24606E-005	10	...........
	12843	256.88	-5.10061E-002	9.56741E-007	0.00000E+000	-5.10000E-002	5.73731E-005	10	...........
	12845	256.92	-4.92222E-002	-3.86579E-006	0.00000E+000	-4.90000E-002	7.87239E-005	10	...........
	12847	256.96	-4.72500E-002	-3.31698E-006	0.00000E+000	-4.70000E-002	7.60551E-005	10	...........
	12849	257	-4.53172E-002	-3.04007E-006	0.00000E+000	-4.50000E-002	7.84737E-005	10	...........
	12851	257.04	-4.32919E-002	-3.15184E-006	0.00000E+000	-4.30000E-002	7.44705E-005	10	...........
	12853	257.08	-4.12670E-002	-3.08178E-006	0.00000E+000	-4.10000E-002	7.72227E-005	10	...........
	12855	257.12	-3.93109E-002	-8.86530E-007	0.00000E+000	-3.90000E-002	7.33862E-005	10	...........
	12857	257.16	-3.74057E-002	-2.37282E-006	0.00000E+000	-3.70000E-002	7.48041E-005	10	...........
	12859	257.2	-3.53263E-002	-2.93164E-006	0.00000E+000	-3.50000E-002	7.16348E-005	10	...........
	12861	257.24	-3.32868E-002	-1.90575E-006	0.00000E+000	-3.30000E-002	7.61385E-005	10	...........
	12863	257.28	-3.11396E-002	5.76249E-008	0.00000E+000	-3.10000E-002	6.25440E-005	10	...........
	12865	257.32	-2.91336E-002	9.95108E-007	0.00000E+000	-2.90000E-002	6.68809E-005	10	...........
	12867	257.36	-2.72791E-002	-3.52383E-006	0.00000E+000	-2.70000E-002	7.38032E-005	10	...........
	12869	257.4	-2.52298E-002	-3.35535E-006	0.00000E+000	-2.50000E-002	7.51377E-005	10	...........
	12871	257.44	-2.32673E-002	-2.75983E-006	0.00000E+000	-2.30000E-002	7.91409E-005	10	...........
	12873	257.48	-2.13391E-002	-1.43367E-006	0.00000E+000	-2.10000E-002	8.68139E-005	10	...........
	12875	257.52	-1.93077E-002	-8.58173E-007	0.00000E+000	-1.90000E-002	7.35530E-005	10	...........
	12877	257.56	-1.72790E-002	-3.51549E-006	0.00000E+000	-1.70000E-002	8.00584E-005	10	...........
	12879	257.6	-1.53071E-002	-3.37870E-006	0.00000E+000	-1.50000E-002	7.38866E-005	10	...........
	12881	257.64	-1.33275E-002	-3.31865E-006	0.00000E+000	-1.30000E-002	7.63887E-005	10	...........
	12883	257.68	-1.12962E-002	-2.48292E-006	0.00000E+000	-1.10000E-002	7.13012E-005	10	...........
	12885	257.72	-9.16069E-003	-5.81265E-007	0.00000E+000	-8.99999E-003	7.48875E-005	10	...........
	12887	257.76	-7.08982E-003	1.20696E-006	0.00000E+000	-6.99998E-003	6.18768E-005	10	...........
	12889	257.8	-5.38143E-003	-3.55218E-006	0.00000E+000	-5.00000E-003	8.72309E-005	10	...........
	12891	257.84	-3.32241E-003	-3.49213E-006	0.00000E+000	-2.99999E-003	7.50543E-005	10	...........
	12893	257.88	-1.25572E-003	-3.52883E-006	0.00000E+000	-9.99987E-004	7.91409E-005	10	...........
	12895	257.92	6.44503E-004	-2.11760E-006	0.00000E+000	1.00002E-003	8.09758E-005	10	...........
	12897	257.96	2.58392E-003	-1.27353E-006	0.00000E+000	3.00001E-003	7.93078E-005	10	...........
	12899	258	4.60608E-003	-3.15517E-006	0.00000E+000	5.00001E-003	8.43953E-005	10	...........
	12901	258.04	6.71497E-003	-2.37116E-006	0.00000E+000	7.00001E-003	7.27190E-005	10	...........
	12903	258.08	8.65055E-003	-1.97414E-006	0.00000E+000	9.00000E-003	7.13846E-005	10	...........
	12905	258.12	1.05951E-002	-3.04508E-006	0.00000E+000	1.10000E-002	7.74729E-005	10	...........
	12907	258.16	1.27095E-002	-1.07503E-006	0.00000E+000	1.30000E-002	6.99668E-005	10	...........
	12909	258.2	1.48820E-002	8.86680E-007	0.00000E+000	1.50000E-002	6.05424E-005	10	...........
	12911	258.24	1.68666E-002	1.09019E-006	0.00000E+000	1.70000E-002	5.07844E-005	10	...........
	12913	258.28	1.85797E-002	-2.80987E-006	0.00000E+000	1.90000E-002	7.98916E-005	10	...........
	12915	258.32	2.07020E-002	-3.03507E-006	0.00000E+000	2.10000E-002	7.48875E-005	10	...........
	12917	258.36	2.27708E-002	-3.17019E-006	0.00000E+000	2.30000E-002	7.55547E-005	10	...........
	12919	258.4	2.47162E-002	-2.86992E-006	0.00000E+000	2.50000E-002	7.63887E-005	10	...........
	12921	258.44	2.65747E-002	-9.14889E-007	0.00000E+000	2.70000E-002	8.09758E-005	10	...........
	12923	258.48	2.86027E-002	-1.12007E-006	0.00000E+000	2.90000E-002	8.09758E-005	10	...........
	12925	258.52	3.07450E-002	-2.59468E-006	0.00000E+000	3.10000E-002	7.48875E-005	10	...........
	12927	258.56	3.26482E-002	-2.76984E-006	0.00000E+000	3.30000E-002	8.58965E-005	10	...........
	12929	258.6	3.45855E-002	-2.72980E-006	0.00000E+000	3.50000E-002	7.98916E-005	10	...........
	12931	258.64	3.65646E-002	-3.25860E-006	0.00000E+000	3.70000E-002	7.93912E-005	10	...........
	12933	258.68	3.86984E-002	-1.90242E-006	0.00000E+000	3.90000E-002	7.47207E-005	10	...........
	12935	258.72	4.06798E-002	-2.11093E-006	0.00000E+000	4.10000E-002	7.23854E-005	10	...........
	12937	258.76	4.25777E-002	-2.41119E-006	0.00000E+000	4.30000E-002	7.66389E-005	10	...........
	12939	258.8	4.48640E-002	5.64733E-007	0.00000E+000	4.50000E-002	6.60469E-005	10	...........
	12941	258.84	4.68582E-002	4.06262E-007	0.00000E+000	4.70000E-002	5.93748E-005	10	...........
	12943	258.88	4.86709E-002	-2.67642E-006	0.00000E+000	4.90000E-002	7.38032E-005	10	...........
	12945	258.92	5.05762E-002	-3.24525E-006	0.00000E+000	5.10000E-002	7.16348E-005	10	...........
	12947	258.96	5.26032E-002	-3.50214E-006	0.00000E+000	5.30000E-002	7.34697E-005	10	...........
	12949	259	5.47422E-002	-2.91830E-006	0.00000E+000	5.50000E-002	7.50543E-005	10	...........
	12951	259.04	5.66241E-002	-1.32691E-006	0.00000E+000	5.70000E-002	7.76397E-005	10	...........
	12953	259.08	5.85606E-002	-3.10847E-006	0.00000E+000	5.90000E-002	8.04754E-005	10	...........
	12955	259.12	6.05794E-002	-3.42207E-006	0.00000E+000	6.10000E-002	8.41450E-005	10	...........
	12957	259.16	6.26295E-002	-3.10680E-006	0.00000E+000	6.30000E-002	7.32194E-005	10	...........
	12959	259.2	6.45786E-002	-1.90408E-006	0.00000E+000	6.50000E-002	7.46373E-005	10	...........
	12961	259.24	6.66407E-002	-5.26217E-007	0.00000E+000	6.70000E-002	7.17182E-005	10	...........
	12963	259.28	6.88276E-002	1.01179E-006	0.00000E+000	6.90000E-002	6.70477E-005	10	...........
	12965	259.32	7.07615E-002	-3.01005E-006	0.00000E+000	7.10000E-002	8.07256E-005	10	...........
	12967	259.36	7.26655E-002	-3.12348E-006	0.00000E+000	7.30000E-002	8.44786E-005	10	...........
	12969	259.4	7.45731E-002	-3.03840E-006	0.00000E+000	7.50000E-002	7.76397E-005	10	...........
	12971	259.44	7.66001E-002	-1.51041E-006	0.00000E+000	7.70000E-002	7.73061E-005	10	...........
	12973	259.48	7.87490E-002	-1.10005E-006	0.00000E+000	7.90000E-002	7.29692E-005	10	...........
	12975	259.52	8.06179E-002	-2.98336E-006	0.00000E+000	8.10000E-002	8.13094E-005	10	...........
	12977	259.56	8.25717E-002	-2.96000E-006	0.00000E+000	8.30000E-002	7.69725E-005	10	...........
	12979	259.6	8.45741E-002	-3.42207E-006	0.00000E+000	8.50000E-002	8.35612E-005	10	...........
	12981	259.64	8.66667E-002	-2.09758E-006	0.00000E+000	8.70000E-002	7.07174E-005	10	...........
	12983	259.68	8.86812E-002	-3.67745E-007	0.00000E+000	8.90000E-002	6.99668E-005	10	...........
	12985	259.72	9.07199E-002	1.46885E-006	0.00000E+000	9.10000E-002	5.95416E-005	10	...........
	12987	259.76	9.25332E-002	-3.01505E-006	0.00000E+000	9.30000E-002	8.00584E-005	10	...........
	12989	259.8	9.46096E-002	-3.00171E-006	0.00000E+000	9.50000E-002	7.63887E-005	10	...........
	12991	259.84	9.66147E-002	-2.87326E-006	0.00000E+000	9.70000E-002	7.66389E-005	10	...........
	12993	259.88	9.85638E-002	-1.03166E-006	0.00000E+000	9.90000E-002	7.44705E-005	10	...........
	12995	259.92	1.00587E-001	-8.36487E-007	0.00000E+000	1.01000E-001	7.58883E-005	10	...........
	12997	259.96	1.02741E-001	-2.62638E-006	0.00000E+000	1.03000E-001	7.37198E-005	10	...........
	12999	260	1.04601E-001	-1.83903E-006	0.00000E+000	1.05000E-001	7.58883E-005	10	...........
	13000	260.02	1.05587E-001	-1.20681E-006	0.00000E+000	1.06000E-001	7.06340E-005	10	...........