File: 20191129/matning1/CVTESTKRISTALL4BOX5_4.DTA
EXPLAIN
TAG	CV
TITLE	LABEL	CV	Test &Identifier
DATE	LABEL	11/29/2019	Date
TIME	LABEL	11:19:13	Time
NOTES	NOTES	1	&Notes...

PSTAT	PSTAT	REF600-16093	Potentiostat
VINIT	POTEN	0.00000E+000	T	Initial &E (V)
VLIMIT1	POTEN	8.00000E-001	F	Scan Limit &1 (V)
VLIMIT2	POTEN	-5.00000E-001	F	Scan Limit &2 (V)
VFINAL	POTEN	0.00000E+000	T	Final &E (V)
SCANRATE	QUANT	4.99999E+001	&Scan Rate (mV/s)
STEPSIZE	QUANT	1.00000E+000	St&ep Size (mV)
CYCLES	IQUANT	5	C&ycles (#)
IMODE	SELECTOR	1	I/E Range &Mode
IRANGE	QUANT	1.50000E+001	&Max Current (mA)
AREA	QUANT	1.00000E+000	Electrode &Area (cm^2)
ELECTRODETYPE	SELECTOR	0	Electrode Type
STRIPPING	TOGGLE	F	Used for Stripping
POLARITY	TOGGLE	F	Signal Polarity
CONDIT	TWOPARAM	F	1.50000E+001	0.00000E+000	Conditionin&g	Time(s)	E(V)
DELAY	TWOPARAM	T	5.00000E+000	0.00000E+000	Init. De&lay	Time(s)	Stab.(mV/s)
EQDELAY	QUANT	3.00000E+000	Equil. &Time (s)
IRCOMP	SELECTOR	0	IRCom&p
PFCOR	QUANT	0.00000E+000	PF Corr. (ohm)
SAMPLINGMODE	SELECTOR	2	Sampling &Mode
OCVCURVE	TABLE	20
	Pt	T	Vf	Vm	Ach	Over
	#	s	V vs. Ref.	V	V	bits
	0	0.25	7.55174E-002	7.55174E-002	7.36837E-005	...........
	1	0.5	7.49174E-002	4.41098E-002	7.41420E-005	...........
	2	0.75	7.27926E-002	9.59782E-002	7.58503E-005	...........
	3	1	6.98809E-002	3.66473E-002	8.13919E-005	...........
	4	1.25	6.74300E-002	7.47274E-002	7.66836E-005	...........
	5	1.5	6.60592E-002	1.02990E-001	7.58920E-005	...........
	6	1.75	6.78570E-002	6.73428E-002	7.68920E-005	...........
	7	2	7.37032E-002	1.13645E-001	7.25587E-005	...........
	8	2.25	8.12720E-002	9.38577E-002	7.82253E-005	...........
	9	2.5	8.86484E-002	1.04914E-001	7.27254E-005	...........
	10	2.75	9.47230E-002	9.40681E-002	7.86836E-005	...........
	11	3	9.80862E-002	8.96161E-002	7.57670E-005	...........
	12	3.25	9.86305E-002	1.14661E-001	7.76419E-005	...........
	13	3.5	9.84228E-002	9.58236E-002	7.63920E-005	...........
	14	3.75	9.88994E-002	8.18518E-002	7.32670E-005	...........
	15	4	9.76657E-002	5.24444E-002	7.43087E-005	...........
	16	4.25	9.19820E-002	1.02598E-001	8.11836E-005	...........
	17	4.5	8.37237E-002	2.88063E-002	7.40587E-005	...........
	18	4.75	7.48988E-002	2.57410E-002	7.78919E-005	...........
	19	5	6.42032E-002	6.94136E-002	7.76836E-005	...........
EOC	QUANT	0.0642032	Open Circuit (V)
PSTATMODEL	IQUANT	4	Pstat Model
PSTATSECTION	LABEL	REF600-16093	Pstat Section
PSTATSERIALNO	LABEL	16093	Pstat Serial Number
CTRLMODE	IQUANT	1	Control Mode
IESTAB	IQUANT	2	I/E Stability
CASPEED	IQUANT	2	Control Amp Speed
CONVENTION	IQUANT	1	Current Convention
ICHRANGE	IQUANT	2	Ich Range
ICHRANGEMODE	TOGGLE	F	Ich Auto Range
ICHOFFSETENABLE	TOGGLE	F	Ich Offset Enable
ICHOFFSET	QUANT	0	Ich Offset (V)
ICHFILTER	IQUANT	2	Ich Filter
VCHRANGE	IQUANT	2	Vch Range
VCHRANGEMODE	TOGGLE	F	Vch Auto Range
VCHOFFSETENABLE	TOGGLE	F	Vch Offset Enable
VCHOFFSET	QUANT	0	Vch Offset (V)
VCHFILTER	IQUANT	2	Vch Filter
ACHRANGE	IQUANT	2	Ach Range
ACHOFFSETENABLE	TOGGLE	F	Ach Offset Enable
ACHOFFSET	QUANT	0	Ach Offset (V)
ACHFILTER	IQUANT	1	Ach Filter
IERANGELOWERLIMIT	IQUANT	1	I/E Range Lower Limit
IERANGEMODE	TOGGLE	F	I/E AutoRange
IERANGE	IQUANT	10	I/E Range
POSFEEDENABLE	TOGGLE	F	Positive Feedback IR Comp
POSFEEDRESISTANCE	QUANT	0	Positive Feedback Resistance (ohm)
ACHSELECT	IQUANT	0	Ach Select
CABLEID	IQUANT	14	Cable ID
DCCALDATE	LABEL	11/5/2019	DC Calibration Date
ACCALDATE	LABEL		AC Calibration Date
THERMOSELECT	IQUANT	1	Thermo Select
FRAMEWORKVERSION	QUANT	6.12	Framework Version
INSTRUMENTVERSION	LABEL	3.11	Instrument Version
CURVE1	TABLE
	Pt	T	Vf	Im	Vu	Sig	Ach	IERange	Over
	#	s	V vs. Ref.	A	V	V	V	#	bits
	0	0.02	6.39842E-002	-3.09178E-006	0.00000E+000	6.42000E-002	7.38032E-005	10	...........
	4	0.1	6.80189E-002	-2.98002E-006	0.00000E+000	6.82000E-002	7.59717E-005	10	...........
	8	0.18	7.21471E-002	-3.03840E-006	0.00000E+000	7.22000E-002	7.45539E-005	10	...........
	12	0.26	7.60177E-002	-3.06343E-006	0.00000E+000	7.62000E-002	7.04672E-005	10	...........
	16	0.34	7.99860E-002	-3.25359E-006	0.00000E+000	8.02000E-002	7.45539E-005	10	...........
	20	0.42	8.39813E-002	-3.11681E-006	0.00000E+000	8.42000E-002	7.21352E-005	10	...........
	24	0.5	8.79333E-002	-3.25860E-006	0.00000E+000	8.82000E-002	7.18016E-005	10	...........
	28	0.58	9.19797E-002	-3.34534E-006	0.00000E+000	9.22000E-002	6.96332E-005	10	...........
	32	0.66	9.59940E-002	-3.29196E-006	0.00000E+000	9.62000E-002	7.28858E-005	10	...........
	36	0.74	9.99975E-002	-3.06509E-006	0.00000E+000	1.00200E-001	7.55547E-005	10	...........
	40	0.82	1.03965E-001	-3.50715E-006	0.00000E+000	1.04200E-001	7.14680E-005	10	...........
	44	0.9	1.07969E-001	-2.95333E-006	0.00000E+000	1.08200E-001	7.28858E-005	10	...........
	48	0.98	1.11934E-001	-3.10847E-006	0.00000E+000	1.12200E-001	7.26356E-005	10	...........
	52	1.06	1.15879E-001	-3.14516E-006	0.00000E+000	1.16200E-001	7.39701E-005	10	...........
	56	1.14	1.19964E-001	-3.14683E-006	0.00000E+000	1.20200E-001	7.42203E-005	10	...........
	60	1.22	1.23984E-001	-2.97168E-006	0.00000E+000	1.24200E-001	7.41369E-005	10	...........
	64	1.3	1.27977E-001	-3.22357E-006	0.00000E+000	1.28200E-001	7.50543E-005	10	...........
	68	1.38	1.31972E-001	-3.22023E-006	0.00000E+000	1.32200E-001	7.05506E-005	10	...........
	72	1.46	1.35929E-001	-3.31865E-006	0.00000E+000	1.36200E-001	7.55547E-005	10	...........
	76	1.54	1.39910E-001	-3.42374E-006	0.00000E+000	1.40200E-001	7.28858E-005	10	...........
	80	1.62	1.43905E-001	-3.15350E-006	0.00000E+000	1.44200E-001	7.47207E-005	10	...........
	84	1.7	1.47961E-001	-3.51715E-006	0.00000E+000	1.48200E-001	7.42203E-005	10	...........
	88	1.78	1.51912E-001	-2.95333E-006	0.00000E+000	1.52200E-001	7.27190E-005	10	...........
	92	1.86	1.55958E-001	-3.12848E-006	0.00000E+000	1.56200E-001	7.68891E-005	10	...........
	96	1.94	1.59925E-001	-2.97668E-006	0.00000E+000	1.60200E-001	7.08008E-005	10	...........
	100	2.02	1.63934E-001	-3.24525E-006	0.00000E+000	1.64200E-001	6.97166E-005	10	...........
	104	2.1	1.67998E-001	-3.04341E-006	0.00000E+000	1.68200E-001	7.07174E-005	10	...........
	108	2.18	1.71961E-001	-2.84991E-006	0.00000E+000	1.72200E-001	7.43871E-005	10	...........
	112	2.26	1.75910E-001	-2.90996E-006	0.00000E+000	1.76200E-001	6.88826E-005	10	...........
	116	2.34	1.79939E-001	-2.87159E-006	0.00000E+000	1.80200E-001	7.33028E-005	10	...........
	120	2.42	1.83856E-001	-3.08011E-006	0.00000E+000	1.84200E-001	7.23854E-005	10	...........
	124	2.5	1.87903E-001	-2.95166E-006	0.00000E+000	1.88200E-001	7.37198E-005	10	...........
	128	2.58	1.91864E-001	-2.81654E-006	0.00000E+000	1.92200E-001	7.10510E-005	10	...........
	132	2.66	1.95941E-001	-2.98669E-006	0.00000E+000	1.96200E-001	7.38032E-005	10	...........
	136	2.74	1.99934E-001	-3.22357E-006	0.00000E+000	2.00200E-001	7.29692E-005	10	...........
	140	2.82	2.03951E-001	-3.06509E-006	0.00000E+000	2.04200E-001	7.04672E-005	10	...........
	144	2.9	2.07839E-001	-2.83323E-006	0.00000E+000	2.08200E-001	8.11426E-005	10	...........
	148	2.98	2.11870E-001	-2.61137E-006	0.00000E+000	2.12200E-001	8.18932E-005	10	...........
	152	3.06	2.15796E-001	-3.21022E-006	0.00000E+000	2.16200E-001	8.45620E-005	10	...........
	156	3.14	2.19924E-001	-2.99503E-006	0.00000E+000	2.20200E-001	7.90576E-005	10	...........
	160	3.22	2.23865E-001	-3.04007E-006	0.00000E+000	2.24200E-001	8.52293E-005	10	...........
	164	3.3	2.27929E-001	-2.64306E-006	0.00000E+000	2.28200E-001	8.01418E-005	10	...........
	168	3.38	2.31841E-001	-3.30697E-006	0.00000E+000	2.32200E-001	7.98916E-005	10	...........
	172	3.46	2.35866E-001	-3.23691E-006	0.00000E+000	2.36200E-001	6.97166E-005	10	...........
	176	3.54	2.39815E-001	-2.94499E-006	0.00000E+000	2.40200E-001	7.40535E-005	10	...........
	180	3.62	2.43826E-001	-3.15184E-006	0.00000E+000	2.44200E-001	7.63053E-005	10	...........
	184	3.7	2.47839E-001	-2.82822E-006	0.00000E+000	2.48200E-001	6.72145E-005	10	...........
	188	3.78	2.51888E-001	-3.43875E-006	0.00000E+000	2.52200E-001	7.17182E-005	10	...........
	192	3.86	2.55803E-001	-3.08178E-006	0.00000E+000	2.56200E-001	7.25522E-005	10	...........
	196	3.94	2.59862E-001	-3.48880E-006	0.00000E+000	2.60200E-001	7.33862E-005	10	...........
	200	4.02	2.63805E-001	-3.41206E-006	0.00000E+000	2.64200E-001	7.30526E-005	10	...........
	204	4.1	2.67805E-001	-3.34701E-006	0.00000E+000	2.68200E-001	8.13928E-005	10	...........
	208	4.18	2.71745E-001	-3.64894E-006	0.00000E+000	2.72200E-001	7.18016E-005	10	...........
	212	4.26	2.75866E-001	-3.70565E-006	0.00000E+000	2.76200E-001	7.34697E-005	10	...........
	216	4.34	2.79824E-001	-3.70398E-006	0.00000E+000	2.80200E-001	7.60551E-005	10	...........
	220	4.42	2.83834E-001	-3.14850E-006	0.00000E+000	2.84200E-001	7.58049E-005	10	...........
	224	4.5	2.87778E-001	-3.03340E-006	0.00000E+000	2.88200E-001	7.63053E-005	10	...........
	228	4.58	2.91802E-001	-2.86325E-006	0.00000E+000	2.92200E-001	7.61385E-005	10	...........
	232	4.66	2.95707E-001	-2.65307E-006	0.00000E+000	2.96200E-001	7.60551E-005	10	...........
	236	4.74	2.99834E-001	-2.86992E-006	0.00000E+000	3.00200E-001	7.18016E-005	10	...........
	240	4.82	3.03751E-001	-3.41206E-006	0.00000E+000	3.04200E-001	7.40535E-005	10	...........
	244	4.9	3.07792E-001	-3.34867E-006	0.00000E+000	3.08200E-001	8.02252E-005	10	...........
	248	4.98	3.11747E-001	-3.69731E-006	0.00000E+000	3.12200E-001	8.04754E-005	10	...........
	252	5.06	3.15773E-001	-3.25860E-006	0.00000E+000	3.16200E-001	7.98082E-005	10	...........
	256	5.14	3.19733E-001	-3.37036E-006	0.00000E+000	3.20200E-001	7.84737E-005	10	...........
	260	5.22	3.23824E-001	-3.20188E-006	0.00000E+000	3.24200E-001	7.30526E-005	10	...........
	264	5.3	3.27780E-001	-2.79986E-006	0.00000E+000	3.28200E-001	7.88907E-005	10	...........
	268	5.38	3.31823E-001	-2.96334E-006	0.00000E+000	3.32200E-001	7.42203E-005	10	...........
	272	5.46	3.35727E-001	-2.59135E-006	0.00000E+000	3.36200E-001	7.97248E-005	10	...........
	276	5.54	3.39772E-001	-2.65974E-006	0.00000E+000	3.40200E-001	7.52211E-005	10	...........
	280	5.62	3.43715E-001	-2.42620E-006	0.00000E+000	3.44200E-001	7.42203E-005	10	...........
	284	5.7	3.47760E-001	-2.92831E-006	0.00000E+000	3.48200E-001	7.53879E-005	10	...........
	288	5.78	3.51708E-001	-2.69644E-006	0.00000E+000	3.52200E-001	7.88907E-005	10	...........
	292	5.86	3.55789E-001	-2.49293E-006	0.00000E+000	3.56200E-001	6.80485E-005	10	...........
	296	5.94	3.59726E-001	-2.17599E-006	0.00000E+000	3.60200E-001	7.81401E-005	10	...........
	300	6.02	3.63761E-001	-2.77818E-006	0.00000E+000	3.64200E-001	7.72227E-005	10	...........
	304	6.1	3.67724E-001	-2.15764E-006	0.00000E+000	3.68200E-001	7.57215E-005	10	...........
	308	6.18	3.71727E-001	-2.66975E-006	0.00000E+000	3.72200E-001	8.01418E-005	10	...........
	312	6.26	3.75691E-001	-2.67475E-006	0.00000E+000	3.76200E-001	7.93078E-005	10	...........
	316	6.34	3.79786E-001	-3.00504E-006	0.00000E+000	3.80200E-001	7.33862E-005	10	...........
	320	6.42	3.83724E-001	-3.10847E-006	0.00000E+000	3.84200E-001	7.75563E-005	10	...........
	324	6.5	3.87753E-001	-3.34367E-006	0.00000E+000	3.88200E-001	7.24688E-005	10	...........
	328	6.58	3.91702E-001	-3.68063E-006	0.00000E+000	3.92200E-001	7.72227E-005	10	...........
	332	6.66	3.95707E-001	-3.05342E-006	0.00000E+000	3.96200E-001	7.74729E-005	10	...........
	336	6.74	3.99638E-001	-3.05509E-006	0.00000E+000	4.00200E-001	7.98916E-005	10	...........
	340	6.82	4.03747E-001	-3.06843E-006	0.00000E+000	4.04200E-001	6.83821E-005	10	...........
	344	6.9	4.07722E-001	-2.71145E-006	0.00000E+000	4.08200E-001	7.18016E-005	10	...........
	348	6.98	4.11703E-001	-3.22523E-006	0.00000E+000	4.12200E-001	7.73061E-005	10	...........
	352	7.06	4.15645E-001	-3.11681E-006	0.00000E+000	4.16200E-001	7.79733E-005	10	...........
	356	7.14	4.19689E-001	-3.22023E-006	0.00000E+000	4.20200E-001	7.68057E-005	10	...........
	360	7.22	4.23502E-001	-2.92998E-006	0.00000E+000	4.24200E-001	8.06422E-005	10	...........
	364	7.3	4.27710E-001	-3.19854E-006	0.00000E+000	4.28200E-001	8.09758E-005	10	...........
	368	7.38	4.31650E-001	-3.63225E-006	0.00000E+000	4.32200E-001	7.71393E-005	10	...........
	372	7.46	4.35673E-001	-3.40706E-006	0.00000E+000	4.36200E-001	7.92243E-005	10	...........
	376	7.54	4.39635E-001	-3.53050E-006	0.00000E+000	4.40200E-001	7.93912E-005	10	...........
	380	7.62	4.43672E-001	-3.45377E-006	0.00000E+000	4.44200E-001	7.80567E-005	10	...........
	384	7.7	4.47611E-001	-3.31031E-006	0.00000E+000	4.48200E-001	7.55547E-005	10	...........
	388	7.78	4.51680E-001	-3.46878E-006	0.00000E+000	4.52200E-001	8.32276E-005	10	...........
	392	7.86	4.55570E-001	-3.37703E-006	0.00000E+000	4.56200E-001	8.10592E-005	10	...........
	396	7.94	4.59665E-001	-3.12181E-006	0.00000E+000	4.60200E-001	7.93912E-005	10	...........
	400	8.02	4.63605E-001	-3.04508E-006	0.00000E+000	4.64200E-001	7.33028E-005	10	...........
	404	8.1	4.67666E-001	-2.93331E-006	0.00000E+000	4.68200E-001	8.07256E-005	10	...........
	408	8.18	4.71610E-001	-2.59969E-006	0.00000E+000	4.72200E-001	7.48875E-005	10	...........
	412	8.26	4.75648E-001	-2.73147E-006	0.00000E+000	4.76200E-001	7.88907E-005	10	...........
	416	8.34	4.79529E-001	-2.66808E-006	0.00000E+000	4.80200E-001	7.97248E-005	10	...........
	420	8.42	4.83660E-001	-2.57967E-006	0.00000E+000	4.84200E-001	7.54713E-005	10	...........
	424	8.5	4.87538E-001	-2.79486E-006	0.00000E+000	4.88200E-001	7.22186E-005	10	...........
	428	8.58	4.91631E-001	-2.93999E-006	0.00000E+000	4.92200E-001	7.47207E-005	10	...........
	432	8.66	4.95579E-001	-2.68309E-006	0.00000E+000	4.96200E-001	7.62219E-005	10	...........
	436	8.74	4.99619E-001	-2.96667E-006	0.00000E+000	5.00200E-001	7.43037E-005	10	...........
	440	8.82	5.03452E-001	-2.22603E-006	0.00000E+000	5.04200E-001	6.81320E-005	10	...........
	444	8.9	5.07633E-001	-2.37950E-006	0.00000E+000	5.08200E-001	7.13012E-005	10	...........
	448	8.98	5.11561E-001	-2.40285E-006	0.00000E+000	5.12200E-001	7.01336E-005	10	...........
	452	9.06	5.15611E-001	-2.26940E-006	0.00000E+000	5.16200E-001	7.60551E-005	10	...........
	456	9.14	5.19554E-001	-2.75816E-006	0.00000E+000	5.20200E-001	7.48875E-005	10	...........
	460	9.22	5.23581E-001	-2.49460E-006	0.00000E+000	5.24200E-001	7.52211E-005	10	...........
	464	9.3	5.27417E-001	-2.36615E-006	0.00000E+000	5.28200E-001	7.27190E-005	10	...........
	468	9.38	5.31607E-001	-2.51461E-006	0.00000E+000	5.32200E-001	7.27190E-005	10	...........
	472	9.46	5.35511E-001	-2.69811E-006	0.00000E+000	5.36200E-001	6.27108E-005	10	...........
	476	9.54	5.39594E-001	-2.82655E-006	0.00000E+000	5.40200E-001	6.73813E-005	10	...........
	480	9.62	5.43509E-001	-3.04341E-006	0.00000E+000	5.44200E-001	6.52129E-005	10	...........
	484	9.7	5.47576E-001	-3.06843E-006	0.00000E+000	5.48200E-001	7.29692E-005	10	...........
	488	9.78	5.51399E-001	-2.82989E-006	0.00000E+000	5.52200E-001	7.58049E-005	10	...........
	492	9.86	5.55565E-001	-3.03840E-006	0.00000E+000	5.56200E-001	7.56381E-005	10	...........
	496	9.94	5.59446E-001	-3.25192E-006	0.00000E+000	5.60200E-001	7.33862E-005	10	...........
	500	10.02	5.63588E-001	-3.08344E-006	0.00000E+000	5.64200E-001	6.07926E-005	10	...........
	504	10.1	5.67478E-001	-3.05008E-006	0.00000E+000	5.68200E-001	7.21352E-005	10	...........
	508	10.18	5.71579E-001	-2.81321E-006	0.00000E+000	5.72200E-001	7.58883E-005	10	...........
	512	10.26	5.75506E-001	-3.14183E-006	0.00000E+000	5.76200E-001	6.84655E-005	10	...........
	516	10.34	5.79588E-001	-3.10513E-006	0.00000E+000	5.80200E-001	7.36364E-005	10	...........
	520	10.42	5.83433E-001	-3.06676E-006	0.00000E+000	5.84200E-001	7.80567E-005	10	...........
	524	10.5	5.87585E-001	-2.76984E-006	0.00000E+000	5.88200E-001	7.26356E-005	10	...........
	528	10.58	5.91435E-001	-3.06009E-006	0.00000E+000	5.92200E-001	7.58883E-005	10	...........
	532	10.66	5.95568E-001	-2.11760E-006	0.00000E+000	5.96200E-001	7.51377E-005	10	...........
	536	10.74	5.99487E-001	-2.65140E-006	0.00000E+000	6.00200E-001	7.69725E-005	10	...........
	540	10.82	6.03551E-001	-3.05675E-006	0.00000E+000	6.04200E-001	7.26356E-005	10	...........
	544	10.9	6.07389E-001	-2.77151E-006	0.00000E+000	6.08200E-001	7.24688E-005	10	...........
	548	10.98	6.11573E-001	-2.13929E-006	0.00000E+000	6.12200E-001	7.13012E-005	10	...........
	552	11.06	6.15391E-001	-2.91496E-006	0.00000E+000	6.16200E-001	7.72227E-005	10	...........
	556	11.14	6.19553E-001	-2.70144E-006	0.00000E+000	6.20200E-001	7.53879E-005	10	...........
	560	11.22	6.23443E-001	-2.64806E-006	0.00000E+000	6.24200E-001	7.97248E-005	10	...........
	564	11.3	6.27531E-001	-2.69477E-006	0.00000E+000	6.28200E-001	7.34697E-005	10	...........
	568	11.38	6.31376E-001	-2.38116E-006	0.00000E+000	6.32200E-001	7.68891E-005	10	...........
	572	11.46	6.35568E-001	-2.26106E-006	0.00000E+000	6.36200E-001	7.40535E-005	10	...........
	576	11.54	6.39403E-001	-2.60136E-006	0.00000E+000	6.40200E-001	7.68891E-005	10	...........
	580	11.62	6.43564E-001	-2.80987E-006	0.00000E+000	6.44200E-001	7.14680E-005	10	...........
	584	11.7	6.47408E-001	-2.73814E-006	0.00000E+000	6.48200E-001	7.21352E-005	10	...........
	588	11.78	6.51483E-001	-3.09512E-006	0.00000E+000	6.52200E-001	7.60551E-005	10	...........
	592	11.86	6.55371E-001	-2.70812E-006	0.00000E+000	6.56200E-001	6.67975E-005	10	...........
	596	11.94	6.59563E-001	-2.42120E-006	0.00000E+000	6.60200E-001	6.93830E-005	10	...........
	600	12.02	6.63388E-001	-2.48292E-006	0.00000E+000	6.64200E-001	7.23020E-005	10	...........
	604	12.1	6.67560E-001	-1.91076E-006	0.00000E+000	6.68200E-001	7.57215E-005	10	...........
	608	12.18	6.71400E-001	-2.54964E-006	0.00000E+000	6.72200E-001	7.30526E-005	10	...........
	612	12.26	6.75518E-001	-2.10759E-006	0.00000E+000	6.76200E-001	7.20518E-005	10	...........
	616	12.34	6.79349E-001	-1.88740E-006	0.00000E+000	6.80200E-001	7.58049E-005	10	...........
	620	12.42	6.83487E-001	-1.89074E-006	0.00000E+000	6.84200E-001	7.55547E-005	10	...........
	624	12.5	6.87378E-001	-1.95579E-006	0.00000E+000	6.88200E-001	7.39701E-005	10	...........
	628	12.58	6.91560E-001	-2.47291E-006	0.00000E+000	6.92200E-001	6.91328E-005	10	...........
	632	12.66	6.95381E-001	-2.12761E-006	0.00000E+000	6.96200E-001	7.43037E-005	10	...........
	636	12.74	6.99509E-001	-2.71813E-006	0.00000E+000	7.00200E-001	6.44623E-005	10	...........
	640	12.82	7.03390E-001	-2.74148E-006	0.00000E+000	7.04200E-001	7.88907E-005	10	...........
	644	12.9	7.07547E-001	-2.41286E-006	0.00000E+000	7.08200E-001	7.15514E-005	10	...........
	648	12.98	7.11354E-001	-2.71479E-006	0.00000E+000	7.12200E-001	6.85490E-005	10	...........
	652	13.06	7.15526E-001	-2.72980E-006	0.00000E+000	7.16200E-001	7.06340E-005	10	...........
	656	13.14	7.19371E-001	-2.39785E-006	0.00000E+000	7.20200E-001	7.39701E-005	10	...........
	660	13.22	7.23493E-001	-3.32866E-006	0.00000E+000	7.24200E-001	7.44705E-005	10	...........
	664	13.3	7.27375E-001	-2.89328E-006	0.00000E+000	7.28200E-001	7.38032E-005	10	...........
	668	13.38	7.31554E-001	-3.10346E-006	0.00000E+000	7.32200E-001	7.33028E-005	10	...........
	672	13.46	7.35366E-001	-2.54798E-006	0.00000E+000	7.36200E-001	7.69725E-005	10	...........
	676	13.54	7.39548E-001	-3.02339E-006	0.00000E+000	7.40200E-001	7.18016E-005	10	...........
	680	13.62	7.43362E-001	-2.53797E-006	0.00000E+000	7.44200E-001	7.43871E-005	10	...........
	684	13.7	7.47483E-001	-2.62971E-006	0.00000E+000	7.48200E-001	6.72979E-005	10	...........
	688	13.78	7.51359E-001	-2.46958E-006	0.00000E+000	7.52200E-001	7.76397E-005	10	...........
	692	13.86	7.55414E-001	-2.78318E-006	0.00000E+000	7.56200E-001	7.05506E-005	10	...........
	696	13.94	7.59362E-001	-2.41953E-006	0.00000E+000	7.60200E-001	7.18016E-005	10	...........
	700	14.02	7.63547E-001	-2.68476E-006	0.00000E+000	7.64200E-001	6.98000E-005	10	...........
	704	14.1	7.67364E-001	-2.59468E-006	0.00000E+000	7.68200E-001	7.13012E-005	10	...........
	708	14.18	7.71519E-001	-2.81821E-006	0.00000E+000	7.72200E-001	7.71393E-005	10	...........
	712	14.26	7.75344E-001	-1.99750E-006	0.00000E+000	7.76200E-001	7.33862E-005	10	...........
	716	14.34	7.79390E-001	-2.32445E-006	0.00000E+000	7.80200E-001	7.43037E-005	10	...........
	720	14.42	7.83357E-001	-2.40452E-006	0.00000E+000	7.84200E-001	7.24688E-005	10	...........
	724	14.5	7.87542E-001	-2.67976E-006	0.00000E+000	7.88200E-001	7.26356E-005	10	...........
	728	14.58	7.91362E-001	-2.38617E-006	0.00000E+000	7.92200E-001	7.30526E-005	10	...........
	732	14.66	7.95522E-001	-2.51962E-006	0.00000E+000	7.96200E-001	7.06340E-005	10	...........
	736	14.74	7.99350E-001	-2.52129E-006	0.00000E+000	8.00200E-001	7.75563E-005	10	...........
	740	14.82	7.95539E-001	-3.03173E-006	0.00000E+000	7.96200E-001	7.38866E-005	10	...........
	744	14.9	7.91381E-001	-2.89495E-006	0.00000E+000	7.92200E-001	7.12178E-005	10	...........
	748	14.98	7.87559E-001	-2.83323E-006	0.00000E+000	7.88200E-001	7.29692E-005	10	...........
	752	15.06	7.83377E-001	-2.59468E-006	0.00000E+000	7.84200E-001	7.62219E-005	10	...........
	756	15.14	7.79409E-001	-2.80153E-006	0.00000E+000	7.80200E-001	7.55547E-005	10	...........
	760	15.22	7.75361E-001	-3.19521E-006	0.00000E+000	7.76200E-001	7.64721E-005	10	...........
	764	15.3	7.71532E-001	-2.79986E-006	0.00000E+000	7.72200E-001	7.44705E-005	10	...........
	768	15.38	7.67381E-001	-2.09091E-006	0.00000E+000	7.68200E-001	7.33028E-005	10	...........
	772	15.46	7.63570E-001	-2.51128E-006	0.00000E+000	7.64200E-001	7.83903E-005	10	...........
	776	15.54	7.59379E-001	-2.67309E-006	0.00000E+000	7.60200E-001	8.00584E-005	10	...........
	780	15.62	7.55429E-001	-2.78151E-006	0.00000E+000	7.56200E-001	7.11344E-005	10	...........
	784	15.7	7.51375E-001	-2.67142E-006	0.00000E+000	7.52200E-001	7.01336E-005	10	...........
	788	15.78	7.47506E-001	-2.70645E-006	0.00000E+000	7.48200E-001	7.57215E-005	10	...........
	792	15.86	7.43382E-001	-2.47458E-006	0.00000E+000	7.44200E-001	7.98916E-005	10	...........
	796	15.94	7.39571E-001	-2.64473E-006	0.00000E+000	7.40200E-001	7.03838E-005	10	...........
	800	16.02	7.35387E-001	-2.65974E-006	0.00000E+000	7.36200E-001	7.53879E-005	10	...........
	804	16.1	7.31577E-001	-3.17019E-006	0.00000E+000	7.32200E-001	7.70559E-005	10	...........
	808	16.18	7.27395E-001	-2.40619E-006	0.00000E+000	7.28200E-001	7.73061E-005	10	...........
	812	16.26	7.23518E-001	-2.76316E-006	0.00000E+000	7.24200E-001	6.75481E-005	10	...........
	816	16.34	7.19390E-001	-3.15684E-006	0.00000E+000	7.20200E-001	7.10510E-005	10	...........
	820	16.42	7.15549E-001	-3.08011E-006	0.00000E+000	7.16200E-001	7.16348E-005	10	...........
	824	16.5	7.11373E-001	-2.92497E-006	0.00000E+000	7.12200E-001	7.32194E-005	10	...........
	828	16.58	7.07566E-001	-3.25860E-006	0.00000E+000	7.08200E-001	7.00502E-005	10	...........
	832	16.66	7.03409E-001	-2.79986E-006	0.00000E+000	7.04200E-001	7.32194E-005	10	...........
	836	16.74	6.99529E-001	-2.47792E-006	0.00000E+000	7.00200E-001	6.29610E-005	10	...........
	840	16.82	6.95399E-001	-2.67142E-006	0.00000E+000	6.96200E-001	7.13012E-005	10	...........
	844	16.9	6.91581E-001	-2.69811E-006	0.00000E+000	6.92200E-001	6.47959E-005	10	...........
	848	16.98	6.87399E-001	-2.51295E-006	0.00000E+000	6.88200E-001	7.29692E-005	10	...........
	852	17.06	6.83495E-001	-2.55632E-006	0.00000E+000	6.84200E-001	6.70477E-005	10	...........
	856	17.14	6.79367E-001	-2.62805E-006	0.00000E+000	6.80200E-001	7.13012E-005	10	...........
	860	17.22	6.75523E-001	-2.89661E-006	0.00000E+000	6.76200E-001	7.64721E-005	10	...........
	864	17.3	6.71417E-001	-2.41453E-006	0.00000E+000	6.72200E-001	7.19684E-005	10	...........
	868	17.38	6.67582E-001	-2.54297E-006	0.00000E+000	6.68200E-001	6.92162E-005	10	...........
	872	17.46	6.63404E-001	-2.55799E-006	0.00000E+000	6.64200E-001	7.34697E-005	10	...........
	876	17.54	6.59585E-001	-2.81154E-006	0.00000E+000	6.60200E-001	7.08842E-005	10	...........
	880	17.62	6.55390E-001	-2.74648E-006	0.00000E+000	6.56200E-001	7.38032E-005	10	...........
	884	17.7	6.51511E-001	-2.86826E-006	0.00000E+000	6.52200E-001	7.37198E-005	10	...........
	888	17.78	6.47427E-001	-2.90162E-006	0.00000E+000	6.48200E-001	7.14680E-005	10	...........
	892	17.86	6.43585E-001	-2.45623E-006	0.00000E+000	6.44200E-001	7.00502E-005	10	...........
	896	17.94	6.39423E-001	-2.33613E-006	0.00000E+000	6.40200E-001	7.26356E-005	10	...........
	900	18.02	6.35590E-001	-2.58134E-006	0.00000E+000	6.36200E-001	7.19684E-005	10	...........
	904	18.1	6.31395E-001	-2.59302E-006	0.00000E+000	6.32200E-001	7.57215E-005	10	...........
	908	18.18	6.27542E-001	-3.03507E-006	0.00000E+000	6.28200E-001	7.18850E-005	10	...........
	912	18.26	6.23452E-001	-3.39538E-006	0.00000E+000	6.24200E-001	7.49709E-005	10	...........
	916	18.34	6.19571E-001	-3.35368E-006	0.00000E+000	6.20200E-001	7.42203E-005	10	...........
	920	18.42	6.15413E-001	-3.14016E-006	0.00000E+000	6.16200E-001	8.05588E-005	10	...........
	924	18.5	6.11596E-001	-2.85157E-006	0.00000E+000	6.12200E-001	7.50543E-005	10	...........
	928	18.58	6.07413E-001	-2.82322E-006	0.00000E+000	6.08200E-001	7.87239E-005	10	...........
	932	18.66	6.03574E-001	-2.92998E-006	0.00000E+000	6.04200E-001	7.04672E-005	10	...........
	936	18.74	5.99510E-001	-3.01005E-006	0.00000E+000	6.00200E-001	6.93830E-005	10	...........
	940	18.82	5.95592E-001	-3.25693E-006	0.00000E+000	5.96200E-001	7.35530E-005	10	...........
	944	18.9	5.91460E-001	-2.77985E-006	0.00000E+000	5.92200E-001	7.45539E-005	10	...........
	948	18.98	5.87607E-001	-2.59302E-006	0.00000E+000	5.88200E-001	7.43871E-005	10	...........
	952	19.06	5.83447E-001	-2.99170E-006	0.00000E+000	5.84200E-001	7.07174E-005	10	...........
	956	19.14	5.79606E-001	-2.70812E-006	0.00000E+000	5.80200E-001	7.24688E-005	10	...........
	960	19.22	5.75530E-001	-2.64139E-006	0.00000E+000	5.76200E-001	6.76315E-005	10	...........
	964	19.3	5.71592E-001	-2.72647E-006	0.00000E+000	5.72200E-001	7.68891E-005	10	...........
	968	19.38	5.67501E-001	-2.69143E-006	0.00000E+000	5.68200E-001	7.88073E-005	10	...........
	972	19.46	5.63608E-001	-3.32032E-006	0.00000E+000	5.64200E-001	7.42203E-005	10	...........
	976	19.54	5.59469E-001	-2.53463E-006	0.00000E+000	5.60200E-001	7.58049E-005	10	...........
	980	19.62	5.55592E-001	-2.66308E-006	0.00000E+000	5.56200E-001	7.50543E-005	10	...........
	984	19.7	5.51423E-001	-2.82488E-006	0.00000E+000	5.52200E-001	7.82235E-005	10	...........
	988	19.78	5.47604E-001	-2.95166E-006	0.00000E+000	5.48200E-001	7.19684E-005	10	...........
	992	19.86	5.43542E-001	-2.96834E-006	0.00000E+000	5.44200E-001	6.76315E-005	10	...........
	996	19.94	5.39617E-001	-3.06676E-006	0.00000E+000	5.40200E-001	7.43871E-005	10	...........
	1000	20.02	5.35536E-001	-2.93665E-006	0.00000E+000	5.36200E-001	7.83903E-005	10	...........
	1004	20.1	5.31635E-001	-2.68643E-006	0.00000E+000	5.32200E-001	7.56381E-005	10	...........
	1008	20.18	5.27442E-001	-2.31110E-006	0.00000E+000	5.28200E-001	7.85571E-005	10	...........
	1012	20.26	5.23599E-001	-2.88661E-006	0.00000E+000	5.24200E-001	7.72227E-005	10	...........
	1016	20.34	5.19572E-001	-2.57800E-006	0.00000E+000	5.20200E-001	7.68891E-005	10	...........
	1020	20.42	5.15630E-001	-2.57634E-006	0.00000E+000	5.16200E-001	7.73061E-005	10	...........
	1024	20.5	5.11577E-001	-2.79819E-006	0.00000E+000	5.12200E-001	7.49709E-005	10	...........
	1028	20.58	5.07652E-001	-2.87493E-006	0.00000E+000	5.08200E-001	7.69725E-005	10	...........
	1032	20.66	5.03468E-001	-2.84824E-006	0.00000E+000	5.04200E-001	8.09758E-005	10	...........
	1036	20.74	4.99635E-001	-2.73481E-006	0.00000E+000	5.00200E-001	7.96414E-005	10	...........
	1040	20.82	4.95600E-001	-2.83656E-006	0.00000E+000	4.96200E-001	7.47207E-005	10	...........
	1044	20.9	4.91654E-001	-2.74982E-006	0.00000E+000	4.92200E-001	7.97248E-005	10	...........
	1048	20.98	4.87554E-001	-2.40785E-006	0.00000E+000	4.88200E-001	7.35530E-005	10	...........
	1052	21.06	4.83677E-001	-2.49460E-006	0.00000E+000	4.84200E-001	7.94746E-005	10	...........
	1056	21.14	4.79546E-001	-2.88661E-006	0.00000E+000	4.80200E-001	7.81401E-005	10	...........
	1060	21.22	4.75666E-001	-2.59635E-006	0.00000E+000	4.76200E-001	8.03920E-005	10	...........
	1064	21.3	4.71642E-001	-2.81821E-006	0.00000E+000	4.72200E-001	8.27272E-005	10	...........
	1068	21.38	4.67680E-001	-2.58801E-006	0.00000E+000	4.68200E-001	7.98082E-005	10	...........
	1072	21.46	4.63620E-001	-2.55465E-006	0.00000E+000	4.64200E-001	7.88907E-005	10	...........
	1076	21.54	4.59683E-001	-2.83489E-006	0.00000E+000	4.60200E-001	7.78899E-005	10	...........
	1080	21.62	4.55597E-001	-2.83823E-006	0.00000E+000	4.56200E-001	8.05588E-005	10	...........
	1084	21.7	4.51696E-001	-2.55298E-006	0.00000E+000	4.52200E-001	7.40535E-005	10	...........
	1088	21.78	4.47638E-001	-2.96667E-006	0.00000E+000	4.48200E-001	7.79733E-005	10	...........
	1092	21.86	4.43692E-001	-3.08344E-006	0.00000E+000	4.44200E-001	7.90576E-005	10	...........
	1096	21.94	4.39650E-001	-2.92164E-006	0.00000E+000	4.40200E-001	8.07256E-005	10	...........
	1100	22.02	4.35691E-001	-2.64806E-006	0.00000E+000	4.36200E-001	8.03086E-005	10	...........
	1104	22.1	4.31666E-001	-2.99170E-006	0.00000E+000	4.32200E-001	8.13094E-005	10	...........
	1108	22.18	4.27726E-001	-3.06509E-006	0.00000E+000	4.28200E-001	8.00584E-005	10	...........
	1112	22.26	4.23520E-001	-3.01672E-006	0.00000E+000	4.24200E-001	6.79651E-005	10	...........
	1116	22.34	4.19703E-001	-3.07343E-006	0.00000E+000	4.20200E-001	7.33862E-005	10	...........
	1120	22.42	4.15657E-001	-3.64393E-006	0.00000E+000	4.16200E-001	7.69725E-005	10	...........
	1124	22.5	4.11717E-001	-3.04007E-006	0.00000E+000	4.12200E-001	7.45539E-005	10	...........
	1128	22.58	4.07734E-001	-3.46544E-006	0.00000E+000	4.08200E-001	7.51377E-005	10	...........
	1132	22.66	4.03750E-001	-3.62725E-006	0.00000E+000	4.04200E-001	7.56381E-005	10	...........
	1136	22.74	3.99656E-001	-3.26694E-006	0.00000E+000	4.00200E-001	7.78899E-005	10	...........
	1140	22.82	3.95723E-001	-3.34200E-006	0.00000E+000	3.96200E-001	8.35612E-005	10	...........
	1144	22.9	3.91721E-001	-3.11180E-006	0.00000E+000	3.92200E-001	7.97248E-005	10	...........
	1148	22.98	3.87767E-001	-3.34200E-006	0.00000E+000	3.88200E-001	7.42203E-005	10	...........
	1152	23.06	3.83743E-001	-3.22690E-006	0.00000E+000	3.84200E-001	7.49709E-005	10	...........
	1156	23.14	3.79804E-001	-2.93498E-006	0.00000E+000	3.80200E-001	7.73895E-005	10	...........
	1160	23.22	3.75710E-001	-3.32699E-006	0.00000E+000	3.76200E-001	7.65555E-005	10	...........
	1164	23.3	3.71735E-001	-3.55719E-006	0.00000E+000	3.72200E-001	8.32276E-005	10	...........
	1168	23.38	3.67732E-001	-3.73735E-006	0.00000E+000	3.68200E-001	7.90576E-005	10	...........
	1172	23.46	3.63779E-001	-3.59889E-006	0.00000E+000	3.64200E-001	7.64721E-005	10	...........
	1176	23.54	3.59735E-001	-3.36035E-006	0.00000E+000	3.60200E-001	8.09758E-005	10	...........
	1180	23.62	3.55809E-001	-3.34200E-006	0.00000E+000	3.56200E-001	7.83069E-005	10	...........
	1184	23.7	3.51718E-001	-3.44709E-006	0.00000E+000	3.52200E-001	7.68891E-005	10	...........
	1188	23.78	3.47771E-001	-3.55385E-006	0.00000E+000	3.48200E-001	7.69725E-005	10	...........
	1192	23.86	3.43718E-001	-3.51215E-006	0.00000E+000	3.44200E-001	8.44786E-005	10	...........
	1196	23.94	3.39788E-001	-3.31031E-006	0.00000E+000	3.40200E-001	8.45620E-005	10	...........
	1200	24.02	3.35737E-001	-3.50548E-006	0.00000E+000	3.36200E-001	7.89741E-005	10	...........
	1204	24.1	3.31838E-001	-3.39371E-006	0.00000E+000	3.32200E-001	7.28858E-005	10	...........
	1208	24.18	3.27812E-001	-3.35368E-006	0.00000E+000	3.28200E-001	7.83903E-005	10	...........
	1212	24.26	3.23849E-001	-3.07010E-006	0.00000E+000	3.24200E-001	7.63887E-005	10	...........
	1216	24.34	3.19750E-001	-3.08344E-006	0.00000E+000	3.20200E-001	8.03920E-005	10	...........
	1220	24.42	3.15804E-001	-2.86992E-006	0.00000E+000	3.16200E-001	7.92243E-005	10	...........
	1224	24.5	3.11776E-001	-3.06509E-006	0.00000E+000	3.12200E-001	7.77231E-005	10	...........
	1228	24.58	3.07814E-001	-2.99170E-006	0.00000E+000	3.08200E-001	8.48123E-005	10	...........
	1232	24.66	3.03780E-001	-2.77151E-006	0.00000E+000	3.04200E-001	7.78065E-005	10	...........
	1236	24.74	2.99846E-001	-2.36782E-006	0.00000E+000	3.00200E-001	7.46373E-005	10	...........
	1240	24.82	2.95724E-001	-2.87159E-006	0.00000E+000	2.96200E-001	7.74729E-005	10	...........
	1244	24.9	2.91817E-001	-2.71979E-006	0.00000E+000	2.92200E-001	7.99750E-005	10	...........
	1248	24.98	2.87799E-001	-2.48459E-006	0.00000E+000	2.88200E-001	8.35612E-005	10	...........
	1252	25.06	2.83857E-001	-2.61637E-006	0.00000E+000	2.84200E-001	7.46373E-005	10	...........
	1256	25.14	2.79850E-001	-2.34947E-006	0.00000E+000	2.80200E-001	7.78065E-005	10	...........
	1260	25.22	2.75885E-001	-2.31277E-006	0.00000E+000	2.76200E-001	7.02170E-005	10	...........
	1264	25.3	2.71769E-001	-2.75816E-006	0.00000E+000	2.72200E-001	7.74729E-005	10	...........
	1268	25.38	2.67822E-001	-2.52796E-006	0.00000E+000	2.68200E-001	7.31360E-005	10	...........
	1272	25.46	2.63831E-001	-2.66475E-006	0.00000E+000	2.64200E-001	7.16348E-005	10	...........
	1276	25.54	2.59882E-001	-2.93832E-006	0.00000E+000	2.60200E-001	7.46373E-005	10	...........
	1280	25.62	2.55828E-001	-2.89995E-006	0.00000E+000	2.56200E-001	7.51377E-005	10	...........
	1284	25.7	2.51912E-001	-2.73147E-006	0.00000E+000	2.52200E-001	6.98834E-005	10	...........
	1288	25.78	2.47859E-001	-3.04674E-006	0.00000E+000	2.48200E-001	7.67223E-005	10	...........
	1292	25.86	2.43839E-001	-3.14350E-006	0.00000E+000	2.44200E-001	7.44705E-005	10	...........
	1296	25.94	2.39838E-001	-2.68309E-006	0.00000E+000	2.40200E-001	7.56381E-005	10	...........
	1300	26.02	2.35887E-001	-2.98836E-006	0.00000E+000	2.36200E-001	7.50543E-005	10	...........
	1304	26.1	2.31865E-001	-2.68309E-006	0.00000E+000	2.32200E-001	7.47207E-005	10	...........
	1308	26.18	2.27939E-001	-2.78318E-006	0.00000E+000	2.28200E-001	7.55547E-005	10	...........
	1312	26.26	2.23880E-001	-2.76150E-006	0.00000E+000	2.24200E-001	7.85571E-005	10	...........
	1316	26.34	2.19943E-001	-2.73314E-006	0.00000E+000	2.20200E-001	7.34697E-005	10	...........
	1320	26.42	2.15826E-001	-2.71979E-006	0.00000E+000	2.16200E-001	6.75481E-005	10	...........
	1324	26.5	2.11889E-001	-2.44622E-006	0.00000E+000	2.12200E-001	7.45539E-005	10	...........
	1328	26.58	2.07865E-001	-2.56966E-006	0.00000E+000	2.08200E-001	6.96332E-005	10	...........
	1332	26.66	2.03964E-001	-2.65307E-006	0.00000E+000	2.04200E-001	6.78817E-005	10	...........
	1336	26.74	1.99957E-001	-2.82155E-006	0.00000E+000	2.00200E-001	6.47959E-005	10	...........
	1340	26.82	1.95962E-001	-2.80320E-006	0.00000E+000	1.96200E-001	6.74647E-005	10	...........
	1344	26.9	1.91882E-001	-2.90162E-006	0.00000E+000	1.92200E-001	7.19684E-005	10	...........
	1348	26.98	1.87927E-001	-2.91496E-006	0.00000E+000	1.88200E-001	7.08008E-005	10	...........
	1352	27.06	1.83876E-001	-3.01672E-006	0.00000E+000	1.84200E-001	6.82987E-005	10	...........
	1356	27.14	1.79953E-001	-2.68977E-006	0.00000E+000	1.80200E-001	6.67141E-005	10	...........
	1360	27.22	1.75934E-001	-3.35201E-006	0.00000E+000	1.76200E-001	6.79651E-005	10	...........
	1364	27.3	1.71982E-001	-3.06176E-006	0.00000E+000	1.72200E-001	6.45457E-005	10	...........
	1368	27.38	1.68034E-001	-3.06343E-006	0.00000E+000	1.68200E-001	6.02088E-005	10	...........
	1372	27.46	1.63944E-001	-2.82655E-006	0.00000E+000	1.64200E-001	6.89660E-005	10	...........
	1376	27.54	1.59931E-001	-3.19854E-006	0.00000E+000	1.60200E-001	6.12930E-005	10	...........
	1380	27.62	1.55974E-001	-2.99336E-006	0.00000E+000	1.56200E-001	7.02170E-005	10	...........
	1384	27.7	1.51929E-001	-3.22023E-006	0.00000E+000	1.52200E-001	7.18850E-005	10	...........
	1388	27.78	1.47978E-001	-3.50047E-006	0.00000E+000	1.48200E-001	6.47959E-005	10	...........
	1392	27.86	1.43932E-001	-3.50881E-006	0.00000E+000	1.44200E-001	6.30444E-005	10	...........
	1396	27.94	1.39936E-001	-3.08011E-006	0.00000E+000	1.40200E-001	6.69643E-005	10	...........
	1400	28.02	1.35955E-001	-3.47545E-006	0.00000E+000	1.36200E-001	6.72145E-005	10	...........
	1404	28.1	1.31991E-001	-3.36035E-006	0.00000E+000	1.32200E-001	6.57133E-005	10	...........
	1408	28.18	1.27996E-001	-3.21356E-006	0.00000E+000	1.28200E-001	5.71229E-005	10	...........
	1412	28.26	1.24003E-001	-3.28028E-006	0.00000E+000	1.24200E-001	6.00420E-005	10	...........
	1416	28.34	1.19995E-001	-3.14516E-006	0.00000E+000	1.20200E-001	6.73813E-005	10	...........
	1420	28.42	1.15911E-001	-3.85912E-006	0.00000E+000	1.16200E-001	6.63805E-005	10	...........
	1424	28.5	1.11960E-001	-3.49880E-006	0.00000E+000	1.12200E-001	7.14680E-005	10	...........
	1428	28.58	1.07991E-001	-3.35201E-006	0.00000E+000	1.08200E-001	6.85490E-005	10	...........
	1432	28.66	1.03993E-001	-4.03094E-006	0.00000E+000	1.04200E-001	7.04672E-005	10	...........
	1436	28.74	1.00019E-001	-3.64727E-006	0.00000E+000	1.00200E-001	7.26356E-005	10	...........
	1440	28.82	9.60385E-002	-3.84077E-006	0.00000E+000	9.62000E-002	6.95498E-005	10	...........
	1444	28.9	9.20101E-002	-3.81408E-006	0.00000E+000	9.22000E-002	6.72979E-005	10	...........
	1448	28.98	8.79639E-002	-3.68063E-006	0.00000E+000	8.82000E-002	6.95498E-005	10	...........
	1452	29.06	8.40101E-002	-3.12681E-006	0.00000E+000	8.42000E-002	7.05506E-005	10	...........
	1456	29.14	8.00112E-002	-3.25860E-006	0.00000E+000	8.02000E-002	7.13012E-005	10	...........
	1460	29.22	7.60339E-002	-3.37536E-006	0.00000E+000	7.62000E-002	7.02170E-005	10	...........
	1464	29.3	7.21663E-002	-3.59055E-006	0.00000E+000	7.22000E-002	6.36283E-005	10	...........
	1468	29.38	6.80360E-002	-3.14683E-006	0.00000E+000	6.82000E-002	6.85490E-005	10	...........
	1472	29.46	6.40025E-002	-3.58054E-006	0.00000E+000	6.42000E-002	6.77983E-005	10	...........
	1476	29.54	6.00262E-002	-3.14850E-006	0.00000E+000	6.02000E-002	7.20518E-005	10	...........
	1480	29.62	5.60131E-002	-3.25192E-006	0.00000E+000	5.62000E-002	6.85490E-005	10	...........
	1484	29.7	5.20354E-002	-3.66228E-006	0.00000E+000	5.22000E-002	6.48793E-005	10	...........
	1488	29.78	4.80821E-002	-3.72734E-006	0.00000E+000	4.82000E-002	6.46291E-005	10	...........
	1492	29.86	4.40432E-002	-3.88414E-006	0.00000E+000	4.42000E-002	6.13764E-005	10	...........
	1496	29.94	4.02322E-002	-3.98590E-006	0.00000E+000	4.02000E-002	7.19684E-005	10	...........
	1500	30.02	3.60365E-002	-3.90749E-006	0.00000E+000	3.62000E-002	6.93830E-005	10	...........
	1504	30.1	3.20437E-002	-3.56553E-006	0.00000E+000	3.22000E-002	7.73061E-005	10	...........
	1508	30.18	2.80492E-002	-3.52716E-006	0.00000E+000	2.82000E-002	6.57967E-005	10	...........
	1512	30.26	2.41490E-002	-3.52383E-006	0.00000E+000	2.42000E-002	6.59635E-005	10	...........
	1516	30.34	2.00631E-002	-3.44042E-006	0.00000E+000	2.02000E-002	6.81320E-005	10	...........
	1520	30.42	1.62600E-002	-3.40039E-006	0.00000E+000	1.62000E-002	6.00420E-005	10	...........
	1524	30.5	1.20158E-002	-3.58388E-006	0.00000E+000	1.22000E-002	6.71311E-005	10	...........
	1528	30.58	8.03046E-003	-3.78739E-006	0.00000E+000	8.20000E-003	6.98834E-005	10	...........
	1532	30.66	4.06180E-003	-4.16272E-006	0.00000E+000	4.20001E-003	6.65473E-005	10	...........
	1536	30.74	2.20740E-004	-3.75069E-006	0.00000E+000	2.00003E-004	6.21270E-005	10	...........
	1540	30.82	-3.86243E-003	-3.53884E-006	0.00000E+000	-3.79999E-003	7.02170E-005	10	...........
	1544	30.9	-7.87171E-003	-3.82576E-006	0.00000E+000	-7.79998E-003	7.22186E-005	10	...........
	1548	30.98	-1.19089E-002	-3.76904E-006	0.00000E+000	-1.18000E-002	7.39701E-005	10	...........
	1552	31.06	-1.58800E-002	-3.67729E-006	0.00000E+000	-1.58000E-002	7.53045E-005	10	...........
	1556	31.14	-1.98773E-002	-3.71733E-006	0.00000E+000	-1.98000E-002	7.25522E-005	10	...........
	1560	31.22	-2.37790E-002	-3.67729E-006	0.00000E+000	-2.38000E-002	6.96332E-005	10	...........
	1564	31.3	-2.78290E-002	-3.76570E-006	0.00000E+000	-2.78000E-002	7.54713E-005	10	...........
	1568	31.38	-3.17082E-002	-3.66895E-006	0.00000E+000	-3.18000E-002	7.66389E-005	10	...........
	1572	31.46	-3.58640E-002	-3.94252E-006	0.00000E+000	-3.58000E-002	6.98834E-005	10	...........
	1576	31.54	-3.98829E-002	-3.61557E-006	0.00000E+000	-3.98000E-002	6.92996E-005	10	...........
	1580	31.62	-4.38770E-002	-3.26193E-006	0.00000E+000	-4.38000E-002	7.16348E-005	10	...........
[...]
	12589	251.8	-3.46836E-001	-2.78151E-006	0.00000E+000	-3.47000E-001	7.68057E-005	10	...........
	12591	251.84	-3.44859E-001	-3.12348E-006	0.00000E+000	-3.45000E-001	6.52129E-005	10	...........
	12593	251.88	-3.42948E-001	-2.71479E-006	0.00000E+000	-3.43000E-001	7.71393E-005	10	...........
	12595	251.92	-3.40808E-001	-3.06843E-006	0.00000E+000	-3.41000E-001	6.69643E-005	10	...........
	12597	251.96	-3.38791E-001	-3.23858E-006	0.00000E+000	-3.39000E-001	7.36364E-005	10	...........
	12599	252	-3.36799E-001	-3.30197E-006	0.00000E+000	-3.37000E-001	7.26356E-005	10	...........
	12601	252.04	-3.34882E-001	-3.01839E-006	0.00000E+000	-3.35000E-001	7.58049E-005	10	...........
	12603	252.08	-3.32807E-001	-2.91997E-006	0.00000E+000	-3.33000E-001	6.91328E-005	10	...........
	12605	252.12	-3.30804E-001	-3.25526E-006	0.00000E+000	-3.31000E-001	6.82987E-005	10	...........
	12607	252.16	-3.28812E-001	-3.65561E-006	0.00000E+000	-3.29000E-001	7.20518E-005	10	...........
	12609	252.2	-3.26896E-001	-3.81742E-006	0.00000E+000	-3.27000E-001	7.81401E-005	10	...........
	12611	252.24	-3.24859E-001	-3.52049E-006	0.00000E+000	-3.25000E-001	7.50543E-005	10	...........
	12613	252.28	-3.22847E-001	-3.42040E-006	0.00000E+000	-3.23000E-001	7.68891E-005	10	...........
	12615	252.32	-3.20879E-001	-3.55552E-006	0.00000E+000	-3.21000E-001	6.88826E-005	10	...........
	12617	252.36	-3.18986E-001	-3.47545E-006	0.00000E+000	-3.19000E-001	7.82235E-005	10	...........
	12619	252.4	-3.16872E-001	-3.88581E-006	0.00000E+000	-3.17000E-001	6.84655E-005	10	...........
	12621	252.44	-3.14864E-001	-4.05596E-006	0.00000E+000	-3.15000E-001	7.10510E-005	10	...........
	12623	252.48	-3.12837E-001	-3.41873E-006	0.00000E+000	-3.13000E-001	6.81320E-005	10	...........
	12625	252.52	-3.10936E-001	-3.22023E-006	0.00000E+000	-3.11000E-001	7.81401E-005	10	...........
	12627	252.56	-3.08863E-001	-3.56386E-006	0.00000E+000	-3.09000E-001	6.78817E-005	10	...........
	12629	252.6	-3.06817E-001	-3.63893E-006	0.00000E+000	-3.07000E-001	7.37198E-005	10	...........
	12631	252.64	-3.04845E-001	-3.60723E-006	0.00000E+000	-3.05000E-001	6.94664E-005	10	...........
	12633	252.68	-3.02924E-001	-3.64226E-006	0.00000E+000	-3.03000E-001	7.16348E-005	10	...........
	12635	252.72	-3.00878E-001	-3.64560E-006	0.00000E+000	-3.01000E-001	6.92162E-005	10	...........
	12637	252.76	-2.98858E-001	-3.84077E-006	0.00000E+000	-2.99000E-001	7.43037E-005	10	...........
	12639	252.8	-2.96888E-001	-3.66395E-006	0.00000E+000	-2.97000E-001	7.42203E-005	10	...........
	12641	252.84	-2.94917E-001	-3.81074E-006	0.00000E+000	-2.95000E-001	7.21352E-005	10	...........
	12643	252.88	-2.92847E-001	-3.57220E-006	0.00000E+000	-2.93000E-001	6.50461E-005	10	...........
	12645	252.92	-2.90813E-001	-3.46211E-006	0.00000E+000	-2.91000E-001	7.01336E-005	10	...........
	12647	252.96	-2.88827E-001	-3.72734E-006	0.00000E+000	-2.89000E-001	7.24688E-005	10	...........
	12649	253	-2.86969E-001	-3.71733E-006	0.00000E+000	-2.87000E-001	7.37198E-005	10	...........
	12651	253.04	-2.84880E-001	-3.76570E-006	0.00000E+000	-2.85000E-001	7.00502E-005	10	...........
	12653	253.08	-2.82822E-001	-3.61891E-006	0.00000E+000	-2.83000E-001	7.53879E-005	10	...........
	12655	253.12	-2.80860E-001	-3.36202E-006	0.00000E+000	-2.81000E-001	7.19684E-005	10	...........
	12657	253.16	-2.78971E-001	-3.23524E-006	0.00000E+000	-2.79000E-001	7.52211E-005	10	...........
	12659	253.2	-2.76934E-001	-3.31364E-006	0.00000E+000	-2.77000E-001	7.22186E-005	10	...........
	12661	253.24	-2.74852E-001	-3.09178E-006	0.00000E+000	-2.75000E-001	7.41369E-005	10	...........
	12663	253.28	-2.72904E-001	-2.72480E-006	0.00000E+000	-2.73000E-001	7.74729E-005	10	...........
	12665	253.32	-2.70926E-001	-2.88994E-006	0.00000E+000	-2.71000E-001	8.13928E-005	10	...........
	12667	253.36	-2.68927E-001	-3.20021E-006	0.00000E+000	-2.69000E-001	7.70559E-005	10	...........
	12669	253.4	-2.66862E-001	-2.99336E-006	0.00000E+000	-2.67000E-001	7.47207E-005	10	...........
	12671	253.44	-2.64854E-001	-2.63972E-006	0.00000E+000	-2.65000E-001	7.22186E-005	10	...........
	12673	253.48	-2.63000E-001	-2.37449E-006	0.00000E+000	-2.63000E-001	7.48875E-005	10	...........
	12675	253.52	-2.60875E-001	-2.50461E-006	0.00000E+000	-2.61000E-001	7.07174E-005	10	...........
	12677	253.56	-2.58829E-001	-2.37616E-006	0.00000E+000	-2.59000E-001	7.37198E-005	10	...........
	12679	253.6	-2.56866E-001	-2.40785E-006	0.00000E+000	-2.57000E-001	7.58049E-005	10	...........
	12681	253.64	-2.54992E-001	-2.03086E-006	0.00000E+000	-2.55000E-001	7.11344E-005	10	...........
	12683	253.68	-2.52909E-001	-2.47792E-006	0.00000E+000	-2.53000E-001	7.03838E-005	10	...........
	12685	253.72	-2.50860E-001	-2.37449E-006	0.00000E+000	-2.51000E-001	7.13846E-005	10	...........
	12687	253.76	-2.48899E-001	-2.21435E-006	0.00000E+000	-2.49000E-001	7.29692E-005	10	...........
	12689	253.8	-2.46948E-001	-2.50794E-006	0.00000E+000	-2.47000E-001	7.15514E-005	10	...........
	12691	253.84	-2.44951E-001	-2.39117E-006	0.00000E+000	-2.45000E-001	6.82153E-005	10	...........
	12693	253.88	-2.42885E-001	-2.65307E-006	0.00000E+000	-2.43000E-001	6.53797E-005	10	...........
	12695	253.92	-2.40901E-001	-2.82822E-006	0.00000E+000	-2.41000E-001	6.89660E-005	10	...........
	12697	253.96	-2.39009E-001	-2.64139E-006	0.00000E+000	-2.39000E-001	7.33028E-005	10	...........
	12699	254	-2.36919E-001	-3.14183E-006	0.00000E+000	-2.37000E-001	6.53797E-005	10	...........
	12701	254.04	-2.34824E-001	-2.76150E-006	0.00000E+000	-2.35000E-001	7.43037E-005	10	...........
	12703	254.08	-2.32857E-001	-2.40785E-006	0.00000E+000	-2.33000E-001	6.90494E-005	10	...........
	12705	254.12	-2.30973E-001	-2.38617E-006	0.00000E+000	-2.31000E-001	7.62219E-005	10	...........
	12707	254.16	-2.28927E-001	-2.23937E-006	0.00000E+000	-2.29000E-001	6.76315E-005	10	...........
	12709	254.2	-2.26841E-001	-2.36615E-006	0.00000E+000	-2.27000E-001	7.32194E-005	10	...........
	12711	254.24	-2.24914E-001	-2.52129E-006	0.00000E+000	-2.25000E-001	7.63053E-005	10	...........
	12713	254.28	-2.22973E-001	-2.64139E-006	0.00000E+000	-2.23000E-001	7.12178E-005	10	...........
	12715	254.32	-2.20948E-001	-2.40952E-006	0.00000E+000	-2.21000E-001	7.29692E-005	10	...........
	12717	254.36	-2.18941E-001	-2.85992E-006	0.00000E+000	-2.19000E-001	6.97166E-005	10	...........
	12719	254.4	-2.16971E-001	-2.70144E-006	0.00000E+000	-2.17000E-001	6.72979E-005	10	...........
	12721	254.44	-2.15023E-001	-2.41453E-006	0.00000E+000	-2.15000E-001	7.18016E-005	10	...........
	12723	254.48	-2.12916E-001	-2.76483E-006	0.00000E+000	-2.13000E-001	7.33862E-005	10	...........
	12725	254.52	-2.10834E-001	-2.71979E-006	0.00000E+000	-2.11000E-001	6.85490E-005	10	...........
	12727	254.56	-2.08881E-001	-2.88827E-006	0.00000E+000	-2.09000E-001	6.87992E-005	10	...........
	12729	254.6	-2.06993E-001	-2.66975E-006	0.00000E+000	-2.07000E-001	6.80485E-005	10	...........
	12731	254.64	-2.04933E-001	-2.75482E-006	0.00000E+000	-2.05000E-001	6.52129E-005	10	...........
	12733	254.68	-2.02851E-001	-2.78485E-006	0.00000E+000	-2.03000E-001	6.67975E-005	10	...........
	12735	254.72	-2.00932E-001	-2.87326E-006	0.00000E+000	-2.01000E-001	6.94664E-005	10	...........
	12737	254.76	-1.99003E-001	-2.90495E-006	0.00000E+000	-1.99000E-001	5.86242E-005	10	...........
	12739	254.8	-1.96983E-001	-2.90162E-006	0.00000E+000	-1.97000E-001	6.42121E-005	10	...........
	12741	254.84	-1.94939E-001	-3.20522E-006	0.00000E+000	-1.95000E-001	5.62889E-005	10	...........
	12743	254.88	-1.92992E-001	-3.18353E-006	0.00000E+000	-1.93000E-001	7.15514E-005	10	...........
	12745	254.92	-1.91047E-001	-3.14683E-006	0.00000E+000	-1.91000E-001	6.51295E-005	10	...........
	12747	254.96	-1.89014E-001	-3.15184E-006	0.00000E+000	-1.89000E-001	6.74647E-005	10	...........
	12749	255	-1.86889E-001	-3.05842E-006	0.00000E+000	-1.87000E-001	6.31278E-005	10	...........
	12751	255.04	-1.84908E-001	-3.06843E-006	0.00000E+000	-1.85000E-001	6.08760E-005	10	...........
	12753	255.08	-1.83011E-001	-3.01672E-006	0.00000E+000	-1.83000E-001	6.67975E-005	10	...........
	12755	255.12	-1.80945E-001	-3.29029E-006	0.00000E+000	-1.81000E-001	6.75481E-005	10	...........
	12757	255.16	-1.78838E-001	-3.03173E-006	0.00000E+000	-1.79000E-001	6.11262E-005	10	...........
	12759	255.2	-1.76935E-001	-3.12515E-006	0.00000E+000	-1.77000E-001	6.57967E-005	10	...........
	12761	255.24	-1.75011E-001	-2.82655E-006	0.00000E+000	-1.75000E-001	6.62971E-005	10	...........
	12763	255.28	-1.72989E-001	-3.04841E-006	0.00000E+000	-1.73000E-001	7.40535E-005	10	...........
	12765	255.32	-1.70949E-001	-3.47879E-006	0.00000E+000	-1.71000E-001	7.10510E-005	10	...........
	12767	255.36	-1.68990E-001	-3.14516E-006	0.00000E+000	-1.69000E-001	6.88826E-005	10	...........
	12769	255.4	-1.67030E-001	-3.12515E-006	0.00000E+000	-1.67000E-001	6.68809E-005	10	...........
	12771	255.44	-1.65064E-001	-3.32365E-006	0.00000E+000	-1.65000E-001	6.02922E-005	10	...........
	12773	255.48	-1.62855E-001	-3.19521E-006	0.00000E+000	-1.63000E-001	6.50461E-005	10	...........
	12775	255.52	-1.60966E-001	-3.00504E-006	0.00000E+000	-1.61000E-001	6.94664E-005	10	...........
	12777	255.56	-1.59047E-001	-2.83489E-006	0.00000E+000	-1.59000E-001	6.73813E-005	10	...........
	12779	255.6	-1.57025E-001	-2.99003E-006	0.00000E+000	-1.57000E-001	7.20518E-005	10	...........
	12781	255.64	-1.54904E-001	-2.85324E-006	0.00000E+000	-1.55000E-001	7.08008E-005	10	...........
	12783	255.68	-1.52969E-001	-3.01005E-006	0.00000E+000	-1.53000E-001	7.17182E-005	10	...........
	12785	255.72	-1.51022E-001	-2.88160E-006	0.00000E+000	-1.51000E-001	7.62219E-005	10	...........
	12787	255.76	-1.49025E-001	-3.35868E-006	0.00000E+000	-1.49000E-001	7.58049E-005	10	...........
	12789	255.8	-1.46934E-001	-3.23357E-006	0.00000E+000	-1.47000E-001	6.76315E-005	10	...........
	12791	255.84	-1.45011E-001	-3.17019E-006	0.00000E+000	-1.45000E-001	7.38032E-005	10	...........
	12793	255.88	-1.43022E-001	-2.84991E-006	0.00000E+000	-1.43000E-001	7.41369E-005	10	...........
	12795	255.92	-1.41043E-001	-2.83489E-006	0.00000E+000	-1.41000E-001	7.78899E-005	10	...........
	12797	255.96	-1.38905E-001	-3.52883E-006	0.00000E+000	-1.39000E-001	6.63805E-005	10	...........
	12799	256	-1.36956E-001	-3.12848E-006	0.00000E+000	-1.37000E-001	7.25522E-005	10	...........
	12801	256.04	-1.35024E-001	-3.26694E-006	0.00000E+000	-1.35000E-001	6.82987E-005	10	...........
	12803	256.08	-1.32988E-001	-3.35535E-006	0.00000E+000	-1.33000E-001	7.25522E-005	10	...........
	12805	256.12	-1.30870E-001	-3.20188E-006	0.00000E+000	-1.31000E-001	7.30526E-005	10	...........
	12807	256.16	-1.28960E-001	-3.08845E-006	0.00000E+000	-1.29000E-001	7.18850E-005	10	...........
	12809	256.2	-1.27035E-001	-3.38204E-006	0.00000E+000	-1.27000E-001	7.63887E-005	10	...........
	12811	256.24	-1.25045E-001	-3.46711E-006	0.00000E+000	-1.25000E-001	7.52211E-005	10	...........
	12813	256.28	-1.22982E-001	-3.24358E-006	0.00000E+000	-1.23000E-001	7.46373E-005	10	...........
	12815	256.32	-1.21018E-001	-3.30697E-006	0.00000E+000	-1.21000E-001	7.69725E-005	10	...........
	12817	256.36	-1.19059E-001	-3.26360E-006	0.00000E+000	-1.19000E-001	7.21352E-005	10	...........
	12819	256.4	-1.17073E-001	-3.31865E-006	0.00000E+000	-1.17000E-001	7.65555E-005	10	...........
	12821	256.44	-1.15039E-001	-3.16852E-006	0.00000E+000	-1.15000E-001	7.68891E-005	10	...........
	12823	256.48	-1.13040E-001	-3.16018E-006	0.00000E+000	-1.13000E-001	8.50625E-005	10	...........
	12825	256.52	-1.11029E-001	-3.29529E-006	0.00000E+000	-1.11000E-001	8.68973E-005	10	...........
	12827	256.56	-1.09070E-001	-3.46544E-006	0.00000E+000	-1.09000E-001	7.89741E-005	10	...........
	12829	256.6	-1.06873E-001	-3.35535E-006	0.00000E+000	-1.07000E-001	7.62219E-005	10	...........
	12831	256.64	-1.04982E-001	-3.40873E-006	0.00000E+000	-1.05000E-001	7.45539E-005	10	...........
	12833	256.68	-1.03031E-001	-3.35535E-006	0.00000E+000	-1.03000E-001	7.03838E-005	10	...........
	12835	256.72	-1.01067E-001	-3.25026E-006	0.00000E+000	-1.01000E-001	8.03086E-005	10	...........
	12837	256.76	-9.89477E-002	-3.41540E-006	0.00000E+000	-9.90000E-002	7.72227E-005	10	...........
	12839	256.8	-9.70372E-002	-2.82322E-006	0.00000E+000	-9.70000E-002	7.93912E-005	10	...........
	12841	256.84	-9.50771E-002	-3.53717E-006	0.00000E+000	-9.50000E-002	7.49709E-005	10	...........
	12843	256.88	-9.30749E-002	-3.50715E-006	0.00000E+000	-9.30000E-002	7.88073E-005	10	...........
	12845	256.92	-9.10766E-002	-3.15851E-006	0.00000E+000	-9.10000E-002	7.23020E-005	10	...........
	12847	256.96	-8.90746E-002	-3.48880E-006	0.00000E+000	-8.90000E-002	7.78899E-005	10	...........
	12849	257	-8.70458E-002	-3.42541E-006	0.00000E+000	-8.70000E-002	6.87158E-005	10	...........
	12851	257.04	-8.50564E-002	-3.48713E-006	0.00000E+000	-8.50000E-002	7.37198E-005	10	...........
	12853	257.08	-8.28793E-002	-3.33533E-006	0.00000E+000	-8.30000E-002	7.41369E-005	10	...........
	12855	257.12	-8.10060E-002	-3.64560E-006	0.00000E+000	-8.10000E-002	8.25604E-005	10	...........
	12857	257.16	-7.90328E-002	-3.69064E-006	0.00000E+000	-7.90000E-002	7.55547E-005	10	...........
	12859	257.2	-7.70648E-002	-3.41206E-006	0.00000E+000	-7.70000E-002	7.64721E-005	10	...........
	12861	257.24	-7.49354E-002	-3.42207E-006	0.00000E+000	-7.50000E-002	7.17182E-005	10	...........
	12863	257.28	-7.30399E-002	-3.44376E-006	0.00000E+000	-7.30000E-002	7.92243E-005	10	...........
	12865	257.32	-7.10714E-002	-2.96334E-006	0.00000E+000	-7.10000E-002	7.70559E-005	10	...........
	12867	257.36	-6.90907E-002	-3.04674E-006	0.00000E+000	-6.90000E-002	8.05588E-005	10	...........
	12869	257.4	-6.70571E-002	-3.13182E-006	0.00000E+000	-6.70000E-002	7.66389E-005	10	...........
	12871	257.44	-6.51007E-002	-3.33867E-006	0.00000E+000	-6.50000E-002	8.20600E-005	10	...........
	12873	257.48	-6.31079E-002	-3.39705E-006	0.00000E+000	-6.30000E-002	7.08008E-005	10	...........
	12875	257.52	-6.11250E-002	-3.22023E-006	0.00000E+000	-6.10000E-002	7.76397E-005	10	...........
	12877	257.56	-5.90701E-002	-3.19354E-006	0.00000E+000	-5.90000E-002	7.74729E-005	10	...........
	12879	257.6	-5.70481E-002	-3.25693E-006	0.00000E+000	-5.70000E-002	7.98082E-005	10	...........
	12881	257.64	-5.50500E-002	-2.75649E-006	0.00000E+000	-5.50000E-002	7.33862E-005	10	...........
	12883	257.68	-5.30687E-002	-3.20355E-006	0.00000E+000	-5.30000E-002	7.51377E-005	10	...........
	12885	257.72	-5.09508E-002	-2.87660E-006	0.00000E+000	-5.10000E-002	7.13846E-005	10	...........
	12887	257.76	-4.90434E-002	-3.02339E-006	0.00000E+000	-4.90000E-002	8.03086E-005	10	...........
	12889	257.8	-4.70511E-002	-2.65307E-006	0.00000E+000	-4.70000E-002	8.02252E-005	10	...........
	12891	257.84	-4.50932E-002	-2.81821E-006	0.00000E+000	-4.50000E-002	7.96414E-005	10	...........
	12893	257.88	-4.30531E-002	-2.86659E-006	0.00000E+000	-4.30000E-002	7.51377E-005	10	...........
	12895	257.92	-4.10748E-002	-3.01839E-006	0.00000E+000	-4.10000E-002	7.48041E-005	10	...........
	12897	257.96	-3.91007E-002	-2.87493E-006	0.00000E+000	-3.90000E-002	6.66307E-005	10	...........
	12899	258	-3.71416E-002	-2.83990E-006	0.00000E+000	-3.70000E-002	7.73061E-005	10	...........
	12901	258.04	-3.49088E-002	-3.10012E-006	0.00000E+000	-3.50000E-002	7.24688E-005	10	...........
	12903	258.08	-3.30602E-002	-3.04674E-006	0.00000E+000	-3.30000E-002	7.47207E-005	10	...........
	12905	258.12	-3.10925E-002	-2.85324E-006	0.00000E+000	-3.10000E-002	7.50543E-005	10	...........
	12907	258.16	-2.91037E-002	-2.83656E-006	0.00000E+000	-2.90000E-002	7.08842E-005	10	...........
	12909	258.2	-2.70291E-002	-3.05342E-006	0.00000E+000	-2.70000E-002	7.34697E-005	10	...........
	12911	258.24	-2.50660E-002	-2.61137E-006	0.00000E+000	-2.50000E-002	7.49709E-005	10	...........
	12913	258.28	-2.30772E-002	-2.69644E-006	0.00000E+000	-2.30000E-002	8.41450E-005	10	...........
	12915	258.32	-2.11063E-002	-2.72980E-006	0.00000E+000	-2.10000E-002	8.48957E-005	10	...........
	12917	258.36	-1.90643E-002	-2.64806E-006	0.00000E+000	-1.90000E-002	7.62219E-005	10	...........
	12919	258.4	-1.70978E-002	-3.02172E-006	0.00000E+000	-1.70000E-002	7.95580E-005	10	...........
	12921	258.44	-1.51064E-002	-2.41953E-006	0.00000E+000	-1.50000E-002	7.58049E-005	10	...........
	12923	258.48	-1.31294E-002	-3.13349E-006	0.00000E+000	-1.30000E-002	7.80567E-005	10	...........
	12925	258.52	-1.10175E-002	-2.83323E-006	0.00000E+000	-1.10000E-002	7.25522E-005	10	...........
	12927	258.56	-9.08045E-003	-3.17019E-006	0.00000E+000	-8.99999E-003	7.83903E-005	10	...........
	12929	258.6	-7.08132E-003	-3.20522E-006	0.00000E+000	-6.99998E-003	7.82235E-005	10	...........
	12931	258.64	-5.11646E-003	-3.44876E-006	0.00000E+000	-5.00000E-003	7.68057E-005	10	...........
	12933	258.68	-2.99306E-003	-3.42040E-006	0.00000E+000	-2.99999E-003	7.55547E-005	10	...........
	12935	258.72	-1.07299E-003	-3.01839E-006	0.00000E+000	-9.99987E-004	7.18850E-005	10	...........
	12937	258.76	8.27737E-004	-3.00838E-006	0.00000E+000	1.00002E-003	6.99668E-005	10	...........
	12939	258.8	2.77858E-003	-3.02840E-006	0.00000E+000	3.00001E-003	7.93912E-005	10	...........
	12941	258.84	4.78839E-003	-3.06343E-006	0.00000E+000	5.00001E-003	7.20518E-005	10	...........
	12943	258.88	6.83815E-003	-3.23691E-006	0.00000E+000	7.00001E-003	7.73061E-005	10	...........
	12945	258.92	8.81410E-003	-3.27861E-006	0.00000E+000	9.00000E-003	7.02170E-005	10	...........
	12947	258.96	1.07966E-002	-3.24358E-006	0.00000E+000	1.10000E-002	7.43871E-005	10	...........
	12949	259	1.28014E-002	-3.46878E-006	0.00000E+000	1.30000E-002	7.00502E-005	10	...........
	12951	259.04	1.48615E-002	-3.40039E-006	0.00000E+000	1.50000E-002	7.32194E-005	10	...........
	12953	259.08	1.68452E-002	-3.13349E-006	0.00000E+000	1.70000E-002	6.85490E-005	10	...........
	12955	259.12	1.87167E-002	-2.89161E-006	0.00000E+000	1.90000E-002	7.47207E-005	10	...........
	12957	259.16	2.10468E-002	-3.01338E-006	0.00000E+000	2.10000E-002	7.38866E-005	10	...........
	12959	259.2	2.28470E-002	-2.93665E-006	0.00000E+000	2.30000E-002	8.10592E-005	10	...........
	12961	259.24	2.48478E-002	-2.60636E-006	0.00000E+000	2.50000E-002	7.63053E-005	10	...........
	12963	259.28	2.67255E-002	-3.39371E-006	0.00000E+000	2.70000E-002	7.56381E-005	10	...........
	12965	259.32	2.88559E-002	-3.10179E-006	0.00000E+000	2.90000E-002	7.23020E-005	10	...........
	12967	259.36	3.08240E-002	-2.89995E-006	0.00000E+000	3.10000E-002	7.10510E-005	10	...........
	12969	259.4	3.28195E-002	-2.61637E-006	0.00000E+000	3.30000E-002	7.45539E-005	10	...........
	12971	259.44	3.47810E-002	-2.68810E-006	0.00000E+000	3.50000E-002	7.36364E-005	10	...........
	12973	259.48	3.67873E-002	-2.78985E-006	0.00000E+000	3.70000E-002	7.47207E-005	10	...........
	12975	259.52	3.88171E-002	-3.06009E-006	0.00000E+000	3.90000E-002	6.76315E-005	10	...........
	12977	259.56	4.08184E-002	-3.17019E-006	0.00000E+000	4.10000E-002	6.97166E-005	10	...........
	12979	259.6	4.26462E-002	-3.31865E-006	0.00000E+000	4.30000E-002	7.20518E-005	10	...........
	12981	259.64	4.49065E-002	-3.57721E-006	0.00000E+000	4.50000E-002	6.59635E-005	10	...........
	12983	259.68	4.68309E-002	-3.75069E-006	0.00000E+000	4.70000E-002	7.31360E-005	10	...........
	12985	259.72	4.88239E-002	-3.35701E-006	0.00000E+000	4.90000E-002	7.23020E-005	10	...........
	12987	259.76	5.07436E-002	-3.26694E-006	0.00000E+000	5.10000E-002	7.58883E-005	10	...........
	12989	259.8	5.28602E-002	-3.55052E-006	0.00000E+000	5.30000E-002	7.33862E-005	10	...........
	12991	259.84	5.48217E-002	-3.21689E-006	0.00000E+000	5.50000E-002	7.38866E-005	10	...........
	12993	259.88	5.68156E-002	-3.19854E-006	0.00000E+000	5.70000E-002	7.28024E-005	10	...........
	12995	259.92	5.87711E-002	-3.19854E-006	0.00000E+000	5.90000E-002	7.34697E-005	10	...........
	12997	259.96	6.07969E-002	-3.74068E-006	0.00000E+000	6.10000E-002	7.56381E-005	10	...........
	12999	260	6.28003E-002	-3.65728E-006	0.00000E+000	6.30000E-002	7.68891E-005	10	...........
	13000	260.02	6.37756E-002	-3.38537E-006	0.00000E+000	6.40000E-002	8.33944E-005	10	...........